time,ax,ay,az,gx,gy,gz,
2.06717800e+06,-6.48399990e-04,3.74245010e-02,2.82664001e-02,-1.25000000e-01,0.00000000e+00,-1.87500000e-01,3.53677902e+01,1.21000000e+02,-8.46250000e+01,-1.74625000e+02,1.70472755e+01,3.14000010e+00,3.14000010e+00,0.00000000e+00,2.00000000e+00,1.11100000e+03,3.96024394e+00,
3.14150000e+00,-3.00000000e+00,4.67844505e+01,1.70022507e+01,3.14150000e+00,3.14150000e+00,2.90293902e-01,3.14150000e+00,3.14150000e+00,4.00000000e+00,-9.00000000e+01,
2.06723700e+06,5.92709985e-03,8.05370044e-03,8.62000015e-05,-6.25000000e-02,-1.25000000e-01,-6.25000000e-02,3.53677902e+01,1.21000000e+02,-8.46250000e+01,-1.74625000e+02,1.67073212e+01,3.14000010e+00,3.14000010e+00,0.00000000e+00,2.00000000e+00,1.11100000e+03,3.96024394e+00,
3.14150000e+00,-3.00000000e+00,4.67844505e+01,1.65091648e+01,3.14150000e+00,3.14150000e+00,-8.05201009e-02,3.14150000e+00,3.14150000e+00,4.00000000e+00,-8.90000000e+01,
2.06729500e+06,-4.83996011e-02,2.29336992e-02,2.51301993e-02,-3.12500000e-01,-2.50000000e-01,0.00000000e+00,3.53677902e+01,1.21000000e+02,-8.46250000e+01,-1.74625000e+02,1.67073212e+01,3.14000010e+00,3.14000010e+00,0.00000000e+00,2.00000000e+00,1.11100000e+03,3.96024394e+00,
3.14150000e+00,-3.00000000e+00,4.67844505e+01,1.68870049e+01,3.14150000e+00,3.14150000e+00,1.83980599e-01,3.14150000e+00,3.14150000e+00,4.00000000e+00,-8.80000000e+01,
2.06734800e+06,-5.68795018e-02,-2.06148997e-02,3.66025008e-02,-6.25000000e-02,-6.25000000e-02,2.50000000e-01,3.53677902e+01,1.21000000e+02,-8.46250000e+01,-1.74625000e+02,1.63673840e+01,3.14000010e+00,3.14000010e+00,0.00000000e+00,2.00000000e+00,1.11100000e+03,3.96024394e+00,
3.14150000e+00,-3.00000000e+00,4.67844505e+01,1.66196251e+01,3.14150000e+00,3.14150000e+00,-2.25278996e-02,3.14150000e+00,3.14150000e+00,4.00000000e+00,-8.80000000e+01,
2.06740800e+06,-1.93818007e-02,-2.31963992e-02,1.96538996e-02,-1.87500000e-01,1.25000000e-01,0.00000000e+00,3.53588486e+01,1.21000000e+02,-8.46250000e+01,-1.74625000e+02,1.68751602e+01,3.14000010e+00,3.14000010e+00,0.00000000e+00,2.00000000e+00,1.11100000e+03,3.94731712e+00,
3.14150000e+00,-3.00000000e+00,4.67844505e+01,1.62993031e+01,3.14150000e+00,3.14150000e+00,-2.38134995e-01,3.14150000e+00,3.14150000e+00,8.00000000e+00,-9.00000000e+01,
2.06746800e+06,0.00000000e+00,0.00000000e+00,0.00000000e+00,-1.25000000e-01,6.25000000e-02,0.00000000e+00,3.53543777e+01,1.21000000e+02,-8.46250000e+01,-1.74625000e+02,1.69590797e+01,3.14000010e+00,3.14000010e+00,0.00000000e+00,2.00000000e+00,1.11100000e+03,3.94731712e+00,
3.14150000e+00,-3.00000000e+00,4.67844505e+01,1.63462715e+01,3.14150000e+00,3.14150000e+00,-2.02421397e-01,3.14150000e+00,3.14150000e+00,4.00000000e+00,-9.00000000e+01,
2.06752600e+06,4.31111008e-02,-7.04229996e-03,1.38504999e-02,0.00000000e+00,6.25000000e-02,6.25000000e-02,3.53767319e+01,1.21000000e+02,-8.46250000e+01,-1.74625000e+02,1.55196924e+01,3.14000010e+00,3.14000010e+00,0.00000000e+00,2.00000000e+00,1.11100000e+03,3.94731712e+00,
3.14150000e+00,-3.00000000e+00,4.67844505e+01,1.65356045e+01,3.14150000e+00,3.14150000e+00,-6.48925975e-02,3.14150000e+00,3.14150000e+00,4.00000000e+00,-9.00000000e+01,
2.06757800e+06,2.16210000e-02,4.61766012e-02,-4.99400019e-04,-6.25000000e-02,-2.50000000e-01,0.00000000e+00,3.53677902e+01,1.21000000e+02,-8.46250000e+01,-1.74625000e+02,1.63673840e+01,3.14000010e+00,3.14000010e+00,0.00000000e+00,2.00000000e+00,1.11100000e+03,3.94731712e+00,
3.14150000e+00,-3.00000000e+00,4.67844505e+01,1.64352627e+01,3.14150000e+00,3.14150000e+00,-1.41573206e-01,3.14150000e+00,3.14150000e+00,4.00000000e+00,-9.00000000e+01,
2.06763800e+06,-3.23709995e-02,1.11175999e-02,2.69910991e-02,0.00000000e+00,6.25000000e-02,-3.12500000e-01,3.53677902e+01,1.21000000e+02,-8.46250000e+01,-1.74625000e+02,1.73872414e+01,3.14000010e+00,3.14000010e+00,0.00000000e+00,2.00000000e+00,1.11100000e+03,3.96024394e+00,
3.14150000e+00,-3.00000000e+00,4.67844505e+01,1.66456661e+01,3.14150000e+00,3.14150000e+00,2.98627000e-02,3.14150000e+00,3.14150000e+00,4.00000000e+00,-9.00000000e+01,
2.06769300e+06,-6.61808029e-02,-1.22750003e-03,2.48715002e-02,0.00000000e+00,-6.25000000e-02,-6.25000000e-02,3.53767319e+01,1.21000000e+02,-8.46250000e+01,-1.74625000e+02,1.58596144e+01,3.14000010e+00,3.14000010e+00,0.00000000e+00,2.00000000e+00,1.11100000e+03,3.94731712e+00,
3.14150000e+00,-3.00000000e+00,4.67844505e+01,1.65710850e+01,3.14150000e+00,3.14150000e+00,-2.41300004e-04,3.14150000e+00,3.14150000e+00,4.00000000e+00,-9.00000000e+01,
2.06774900e+06,-3.07703000e-02,1.01528000e-02,7.07860012e-03,-6.25000000e-02,-6.25000000e-02,-1.25000000e-01,3.53767319e+01,1.21000000e+02,-8.46250000e+01,-1.74625000e+02,1.65394859e+01,3.14000010e+00,3.14000010e+00,0.00000000e+00,2.00000000e+00,1.11100000e+03,3.94731712e+00,
3.14150000e+00,-3.00000000e+00,4.67844505e+01,1.64184437e+01,3.14150000e+00,3.14150000e+00,-1.14425100e-01,3.14150000e+00,3.14150000e+00,4.00000000e+00,-9.00000000e+01,
2.06780800e+06,1.13885002e-02,-3.33491005e-02,1.25751998e-02,0.00000000e+00,1.25000000e-01,1.87500000e-01,3.53677902e+01,1.21000000e+02,-8.46250000e+01,-1.74625000e+02,1.67073212e+01,3.14000010e+00,3.14000010e+00,0.00000000e+00,2.00000000e+00,1.11100000e+03,3.94731712e+00,
3.14150000e+00,-3.00000000e+00,4.67844505e+01,1.64741058e+01,3.14150000e+00,3.14150000e+00,-8.70812014e-02,3.14150000e+00,3.14150000e+00,4.00000000e+00,-8.90000000e+01,
2.06786800e+06,5.12679992e-03,8.53610039e-03,1.00424001e-02,6.25000000e-02,0.00000000e+00,1.25000000e-01,3.53677902e+01,1.21000000e+02,-8.46250000e+01,-1.74625000e+02,1.60274506e+01,3.14000010e+00,3.14000010e+00,0.00000000e+00,2.00000000e+00,1.11100000e+03,3.96024394e+00,
3.14150000e+00,-3.00000000e+00,4.67844505e+01,1.66129303e+01,3.14150000e+00,3.14150000e+00,5.93880005e-03,3.14150000e+00,3.14150000e+00,4.00000000e+00,-9.00000000e+01,
2.06792600e+06,4.39114012e-02,-7.52469990e-03,3.89429997e-03,-1.87500000e-01,-1.25000000e-01,-1.25000000e-01,3.53767319e+01,1.21000000e+02,-8.46250000e+01,-1.74625000e+02,1.61995468e+01,3.14000010e+00,3.14000010e+00,0.00000000e+00,2.00000000e+00,1.11100000e+03,3.96024394e+00,
3.14150000e+00,-3.00000000e+00,4.67844505e+01,1.67240601e+01,3.14150000e+00,3.14150000e+00,6.99732974e-02,3.14150000e+00,3.14150000e+00,4.00000000e+00,-9.10000000e+01,
2.06797900e+06,-8.00299982e-04,4.82400006e-04,9.95619968e-03,6.25000000e-02,-1.87500000e-01,-1.87500000e-01,3.53767319e+01,1.21000000e+02,-8.46250000e+01,-1.74625000e+02,1.65394859e+01,3.14000010e+00,3.14000010e+00,0.00000000e+00,2.00000000e+00,1.11100000e+03,3.94731712e+00,
3.14150000e+00,-3.00000000e+00,4.67844505e+01,1.65864849e+01,3.14150000e+00,3.14150000e+00,-5.01294993e-02,3.14150000e+00,3.14150000e+00,4.00000000e+00,-9.30000000e+01,
2.06803800e+06,5.92709985e-03,8.05370044e-03,8.62000015e-05,3.12500000e-01,6.25000000e-02,0.00000000e+00,3.53588486e+01,1.21000000e+02,-8.46250000e+01,-1.74625000e+02,1.61952915e+01,3.14000010e+00,3.14000010e+00,0.00000000e+00,2.00000000e+00,1.11100000e+03,3.94731712e+00,
3.14150000e+00,-3.00000000e+00,4.67844505e+01,1.66592751e+01,3.14150000e+00,3.14150000e+00,-1.38609996e-03,3.14150000e+00,3.14150000e+00,4.00000000e+00,-9.20000000e+01,
2.06809100e+06,-3.50968018e-02,1.13420002e-03,-1.29201002e-02,0.00000000e+00,1.87500000e-01,-1.25000000e-01,3.53677902e+01,1.21000000e+02,-8.46250000e+01,-1.74625000e+02,1.67073212e+01,3.14000010e+00,3.14000010e+00,0.00000000e+00,2.00000000e+00,1.11100000e+03,3.96024394e+00,
3.14150000e+00,-3.00000000e+00,4.67844505e+01,1.62013054e+01,3.14150000e+00,3.14150000e+00,-3.18339407e-01,3.14150000e+00,3.14150000e+00,4.00000000e+00,-9.20000000e+01,
2.06814900e+06,-1.55419996e-02,-1.18090003e-03,1.88957993e-02,-6.25000000e-02,1.25000000e-01,-6.25000000e-02,3.53812027e+01,1.21000000e+02,-8.46250000e+01,-1.74625000e+02,1.61156311e+01,3.14000010e+00,3.14000010e+00,0.00000000e+00,2.00000000e+00,1.11100000e+03,3.94731712e+00,
3.14150000e+00,-3.00000000e+00,4.67844505e+01,1.64963226e+01,3.14150000e+00,3.14150000e+00,-1.00699499e-01,3.14150000e+00,3.14150000e+00,4.00000000e+00,-9.20000000e+01,
2.06820900e+06,-4.48819995e-03,1.54090002e-02,2.90245004e-02,-1.87500000e-01,1.25000000e-01,2.50000000e-01,3.53588486e+01,1.21000000e+02,-8.46250000e+01,-1.74625000e+02,1.72151127e+01,3.14000010e+00,3.14000010e+00,0.00000000e+00,2.00000000e+00,1.11100000e+03,3.96024394e+00,
3.14150000e+00,-3.00000000e+00,4.67844505e+01,1.58731747e+01,3.14150000e+00,3.14150000e+00,-5.46744823e-01,3.14150000e+00,3.14150000e+00,4.00000000e+00,-9.50000000e+01,
2.06826800e+06,4.32650000e-03,9.01850034e-03,1.99986994e-02,-2.50000000e-01,6.25000000e-02,0.00000000e+00,3.53722610e+01,1.21000000e+02,-8.46250000e+01,-1.74625000e+02,1.59435320e+01,3.14000010e+00,3.14000010e+00,0.00000000e+00,2.00000000e+00,1.11100000e+03,3.96024394e+00,
3.14150000e+00,-3.00000000e+00,4.67844505e+01,1.64346809e+01,3.14150000e+00,3.14150000e+00,-1.35590106e-01,3.14150000e+00,3.14150000e+00,4.00000000e+00,-9.50000000e+01,
2.06832700e+06,3.37420008e-03,-2.74410993e-02,1.16448002e-02,0.00000000e+00,-1.25000000e-01,6.25000000e-02,3.53677902e+01,1.21000000e+02,-8.46250000e+01,-1.74625000e+02,1.60274506e+01,3.14000010e+00,3.14000010e+00,0.00000000e+00,2.00000000e+00,1.11100000e+03,3.96024394e+00,
3.14150000e+00,-3.00000000e+00,4.67844505e+01,1.63249836e+01,3.14150000e+00,3.14150000e+00,-2.17057899e-01,3.14150000e+00,3.14150000e+00,4.00000000e+00,-9.50000000e+01,
2.06837900e+06,-3.07703000e-02,1.01528000e-02,7.07860012e-03,-1.87500000e-01,6.25000000e-02,-1.25000000e-01,3.53767319e+01,1.21000000e+02,-8.46250000e+01,-1.74625000e+02,1.65394859e+01,3.14000010e+00,3.14000010e+00,0.00000000e+00,2.00000000e+00,1.11100000e+03,3.96024394e+00,
3.14150000e+00,-3.00000000e+00,4.67844505e+01,1.67302380e+01,3.14150000e+00,3.14150000e+00,3.55204009e-02,3.14150000e+00,3.14150000e+00,4.00000000e+00,-9.50000000e+01,
2.06843800e+06,-1.60059996e-03,9.64800012e-04,1.99124999e-02,-6.25000000e-02,0.00000000e+00,6.25000000e-02,3.53588486e+01,1.21000000e+02,-8.46250000e+01,-1.74625000e+02,1.68751602e+01,3.14000010e+00,3.14000010e+00,0.00000000e+00,2.00000000e+00,1.11100000e+03,3.96024394e+00,
3.14150000e+00,-3.00000000e+00,4.67844505e+01,1.64670601e+01,3.14150000e+00,3.14150000e+00,-1.52584001e-01,3.14150000e+00,3.14150000e+00,4.00000000e+00,-9.30000000e+01,
2.06849200e+06,-5.09525016e-02,-1.25612002e-02,3.66887003e-02,-1.87500000e-01,-3.12500000e-01,1.87500000e-01,3.53767319e+01,1.21000000e+02,-8.46250000e+01,-1.74625000e+02,1.61995468e+01,3.14000010e+00,3.14000010e+00,0.00000000e+00,2.00000000e+00,1.11100000e+03,3.94731712e+00,
3.14150000e+00,-3.00000000e+00,4.67844505e+01,1.69342175e+01,3.14150000e+00,3.14150000e+00,1.69007897e-01,3.14150000e+00,3.14150000e+00,4.00000000e+00,-9.20000000e+01,
2.06854900e+06,-1.55419996e-02,-1.18090003e-03,1.88957993e-02,-1.25000000e-01,1.25000000e-01,1.25000000e-01,3.53767319e+01,1.21000000e+02,-8.46250000e+01,-1.74625000e+02,1.65394859e+01,3.14000010e+00,3.14000010e+00,0.00000000e+00,2.00000000e+00,1.11100000e+03,3.96024394e+00,
3.14150000e+00,-3.00000000e+00,4.67844505e+01,1.70093346e+01,3.14150000e+00,3.14150000e+00,2.19470695e-01,3.14150000e+00,3.14150000e+00,4.00000000e+00,-9.10000000e+01,
2.06860900e+06,2.91696992e-02,-9.18800011e-03,1.28338998e-02,1.87500000e-01,-1.25000000e-01,1.25000000e-01,3.53722610e+01,1.21000000e+02,-8.46250000e+01,-1.74625000e+02,1.66234035e+01,3.14000010e+00,3.14000010e+00,0.00000000e+00,2.00000000e+00,1.11100000e+03,3.96024394e+00,
3.14150000e+00,-3.00000000e+00,4.67844505e+01,1.67269020e+01,3.14150000e+00,3.14150000e+00,4.35848013e-02,3.14150000e+00,3.14150000e+00,4.00000000e+00,-9.10000000e+01,
2.06866900e+06,1.18541000e-02,1.61074009e-02,1.72400003e-04,0.00000000e+00,-6.25000000e-02,0.00000000e+00,3.53677902e+01,1.21000000e+02,-8.46250000e+01,-1.74625000e+02,1.60274506e+01,3.14000010e+00,3.14000010e+00,0.00000000e+00,2.00000000e+00,1.11100000e+03,3.96024394e+00,
3.14150000e+00,-3.00000000e+00,4.67844505e+01,1.63457756e+01,3.14150000e+00,3.14150000e+00,-2.13784695e-01,3.14150000e+00,3.14150000e+00,4.00000000e+00,-9.20000000e+01,
2.06872800e+06,-3.13700002e-04,-1.25144999e-02,3.07129994e-02,3.12500000e-01,-6.25000000e-02,-6.25000000e-02,3.53722610e+01,1.21000000e+02,-8.46250000e+01,-1.74625000e+02,1.59435320e+01,3.14000010e+00,3.14000010e+00,0.00000000e+00,2.00000000e+00,1.11100000e+03,3.96024394e+00,
3.14150000e+00,-3.00000000e+00,4.67844505e+01,1.65090141e+01,3.14150000e+00,3.14150000e+00,-9.89587978e-02,3.14150000e+00,3.14150000e+00,4.00000000e+00,-9.60000000e+01,
2.06878000e+06,-5.04868999e-02,3.68954018e-02,2.42858995e-02,1.87500000e-01,0.00000000e+00,-1.87500000e-01,3.53677902e+01,1.21000000e+02,-8.46250000e+01,-1.74625000e+02,1.60274506e+01,3.14000010e+00,3.14000010e+00,0.00000000e+00,2.00000000e+00,1.11100000e+03,3.96024394e+00,
3.14150000e+00,-3.00000000e+00,4.67844505e+01,1.67456760e+01,3.14150000e+00,3.14150000e+00,3.59648988e-02,3.14150000e+00,3.14150000e+00,4.00000000e+00,-1.00000000e+02,
2.06883900e+06,-4.50254008e-02,-4.50740010e-03,3.67748998e-02,6.25000000e-02,-1.25000000e-01,0.00000000e+00,3.53588486e+01,1.21000000e+02,-8.46250000e+01,-1.74625000e+02,1.68751602e+01,3.14000010e+00,3.14000010e+00,0.00000000e+00,2.00000000e+00,1.11100000e+03,3.96024394e+00,
3.14150000e+00,-3.00000000e+00,4.67844505e+01,1.62654476e+01,3.14150000e+00,3.14150000e+00,-2.80350208e-01,3.14150000e+00,3.14150000e+00,4.00000000e+00,-1.03000000e+02,
2.06889600e+06,-3.66973989e-02,2.09910003e-03,6.99240016e-03,0.00000000e+00,0.00000000e+00,0.00000000e+00,3.53767319e+01,1.21000000e+02,-8.46250000e+01,-1.74625000e+02,1.65394859e+01,3.14000010e+00,3.14000010e+00,0.00000000e+00,2.00000000e+00,1.11100000e+03,3.94731712e+00,
3.14150000e+00,-3.00000000e+00,4.67844505e+01,1.64598904e+01,3.14150000e+00,3.14150000e+00,-1.32607400e-01,3.14150000e+00,3.14150000e+00,4.00000000e+00,-9.80000000e+01,
2.06895000e+06,2.08729994e-03,-1.39618004e-02,8.44300026e-04,-2.50000000e-01,6.25000000e-02,1.25000000e-01,3.53543777e+01,1.21000000e+02,-8.46250000e+01,-1.74625000e+02,1.76389980e+01,3.14000010e+00,3.14000010e+00,0.00000000e+00,2.00000000e+00,1.11100000e+03,3.94731712e+00,
3.14150000e+00,-3.00000000e+00,4.67844505e+01,1.67039986e+01,3.14150000e+00,3.14150000e+00,2.73969993e-02,3.14150000e+00,3.14150000e+00,4.00000000e+00,-9.80000000e+01,
2.06901000e+06,3.42965014e-02,-6.51800015e-04,2.28762999e-02,6.25000000e-02,0.00000000e+00,6.25000000e-02,3.53677902e+01,1.21000000e+02,-8.46250000e+01,-1.74625000e+02,1.60274506e+01,3.14000010e+00,3.14000010e+00,0.00000000e+00,2.00000000e+00,1.11100000e+03,3.94731712e+00,
3.14150000e+00,-3.00000000e+00,4.67844505e+01,1.66184235e+01,3.14150000e+00,3.14150000e+00,-6.62174001e-02,3.14150000e+00,3.14150000e+00,4.00000000e+00,-9.70000000e+01,
2.06907000e+06,1.60285998e-02,-1.18161002e-02,1.86089997e-03,0.00000000e+00,0.00000000e+00,0.00000000e+00,3.53677902e+01,1.21000000e+02,-8.46250000e+01,-1.74625000e+02,1.63673840e+01,3.14000010e+00,3.14000010e+00,0.00000000e+00,2.00000000e+00,1.11100000e+03,3.94731712e+00,
3.14150000e+00,-3.00000000e+00,4.67844505e+01,1.67907333e+01,3.14150000e+00,3.14150000e+00,6.31086975e-02,3.14150000e+00,3.14150000e+00,4.00000000e+00,-9.70000000e+01,
2.06912800e+06,2.08729994e-03,-1.39618004e-02,8.44300026e-04,2.50000000e-01,-1.25000000e-01,-1.25000000e-01,3.53588486e+01,1.21000000e+02,-8.46250000e+01,-1.74625000e+02,1.68751602e+01,3.14000010e+00,3.14000010e+00,0.00000000e+00,2.00000000e+00,1.11100000e+03,3.96024394e+00,
3.14150000e+00,-3.00000000e+00,4.67844505e+01,1.67543507e+01,3.14150000e+00,3.14150000e+00,3.53255011e-02,3.14150000e+00,3.14150000e+00,4.00000000e+00,-9.90000000e+01,
2.06918000e+06,-4.63102981e-02,8.98229983e-03,2.59744003e-02,5.62500000e-01,-6.25000000e-02,-1.25000000e-01,3.53722610e+01,1.21000000e+02,-8.46250000e+01,-1.74625000e+02,1.66234035e+01,3.14000010e+00,3.14000010e+00,0.00000000e+00,2.00000000e+00,1.11100000e+03,3.94731712e+00,
3.14150000e+00,-3.00000000e+00,4.67844505e+01,1.63823090e+01,3.14150000e+00,3.14150000e+00,-1.94464505e-01,3.14150000e+00,3.14150000e+00,4.00000000e+00,-1.00000000e+02,
2.06923900e+06,1.10576004e-02,1.65871996e-02,1.01289004e-02,1.25000000e-01,-6.25000000e-02,-6.25000000e-02,3.53722610e+01,1.21000000e+02,-8.46250000e+01,-1.74625000e+02,1.73033237e+01,3.14000010e+00,3.14000010e+00,0.00000000e+00,2.00000000e+00,1.11100000e+03,3.94731712e+00,
3.14150000e+00,-3.00000000e+00,4.67844505e+01,1.69740028e+01,3.14150000e+00,3.14150000e+00,2.06988394e-01,3.14150000e+00,3.14150000e+00,4.00000000e+00,-1.00000000e+02,
2.06929100e+06,-2.40070000e-03,1.44739996e-03,2.98686996e-02,3.12500000e-01,0.00000000e+00,0.00000000e+00,3.53722610e+01,1.21000000e+02,-8.46250000e+01,-1.74625000e+02,1.69633579e+01,3.14000010e+00,3.14000010e+00,0.00000000e+00,2.00000000e+00,1.11100000e+03,3.96024394e+00,
3.14150000e+00,-3.00000000e+00,4.67844505e+01,1.68527489e+01,3.14150000e+00,3.14150000e+00,1.16593502e-01,3.14150000e+00,3.14150000e+00,4.00000000e+00,-1.01000000e+02,
2.06935000e+06,7.37319980e-03,3.15143988e-02,2.91971993e-02,-6.25000000e-02,1.25000000e-01,6.25000000e-02,3.53722610e+01,1.21000000e+02,-8.46250000e+01,-1.74625000e+02,1.59435320e+01,3.14000010e+00,3.14000010e+00,0.00000000e+00,2.00000000e+00,1.11100000e+03,3.94731712e+00,
3.14150000e+00,-3.00000000e+00,4.67844505e+01,1.66875343e+01,3.14150000e+00,3.14150000e+00,4.59480006e-03,3.14150000e+00,3.14150000e+00,4.00000000e+00,-1.02000000e+02,
2.06940900e+06,2.24383995e-02,-1.67647004e-02,2.27038004e-02,-6.25000000e-02,6.25000000e-02,0.00000000e+00,3.53588486e+01,1.21000000e+02,-8.46250000e+01,-1.74625000e+02,1.65352230e+01,3.14000010e+00,3.14000010e+00,0.00000000e+00,2.00000000e+00,1.11100000e+03,3.94731712e+00,
3.14150000e+00,-3.00000000e+00,4.67844505e+01,1.59400530e+01,3.14150000e+00,3.14150000e+00,-5.29947579e-01,3.14150000e+00,3.14150000e+00,4.00000000e+00,-9.90000000e+01,
2.06946100e+06,-3.41292992e-02,-2.48520002e-02,2.85931006e-02,2.50000000e-01,-1.25000000e-01,-6.25000000e-02,3.53588486e+01,1.21000000e+02,-8.46250000e+01,-1.74625000e+02,1.68751602e+01,3.14000010e+00,3.14000010e+00,0.00000000e+00,2.00000000e+00,1.11100000e+03,3.96024394e+00,
3.14150000e+00,-3.00000000e+00,4.67844505e+01,1.62951050e+01,3.14150000e+00,3.14150000e+00,-2.68622786e-01,3.14150000e+00,3.14150000e+00,4.00000000e+00,-9.70000000e+01,
2.06952000e+06,-1.13743003e-02,-2.91019995e-02,2.05840003e-02,0.00000000e+00,-6.25000000e-02,-1.25000000e-01,3.53588486e+01,1.21000000e+02,-8.46250000e+01,-1.74625000e+02,1.61952915e+01,3.14000010e+00,3.14000010e+00,0.00000000e+00,2.00000000e+00,1.11100000e+03,3.96024394e+00,
3.14150000e+00,-3.00000000e+00,4.67844505e+01,1.64094048e+01,3.14150000e+00,3.14150000e+00,-1.85946897e-01,3.14150000e+00,3.14150000e+00,4.00000000e+00,-9.60000000e+01,
2.06957900e+06,-4.21423018e-02,-1.89421996e-02,2.76625995e-02,1.87500000e-01,1.25000000e-01,0.00000000e+00,3.53722610e+01,1.21000000e+02,-8.46250000e+01,-1.74625000e+02,1.59435320e+01,3.14000010e+00,3.14000010e+00,0.00000000e+00,2.00000000e+00,1.11100000e+03,3.94731712e+00,
3.14150000e+00,-3.00000000e+00,4.67844505e+01,1.64519367e+01,3.14150000e+00,3.14150000e+00,-1.40013799e-01,3.14150000e+00,3.14150000e+00,4.00000000e+00,-9.60000000e+01,
2.06963100e+06,-8.32960010e-03,-6.60490012e-03,2.97823995e-02,1.25000000e-01,2.50000000e-01,-1.25000000e-01,3.53767319e+01,1.21000000e+02,-8.46250000e+01,-1.74625000e+02,1.58596144e+01,3.14000010e+00,3.14000010e+00,0.00000000e+00,2.00000000e+00,1.11100000e+03,3.94731712e+00,
3.14150000e+00,-3.00000000e+00,4.67844505e+01,1.64759979e+01,3.14150000e+00,3.14150000e+00,-1.40206307e-01,3.14150000e+00,3.14150000e+00,4.00000000e+00,-9.70000000e+01,
2.06969000e+06,-2.05106009e-02,2.72294991e-02,2.71637999e-02,-2.50000000e-01,1.25000000e-01,-6.25000000e-02,3.53767319e+01,1.21000000e+02,-8.46250000e+01,-1.74625000e+02,1.61995468e+01,3.14000010e+00,3.14000010e+00,0.00000000e+00,2.00000000e+00,1.11100000e+03,3.96024394e+00,
3.14150000e+00,-3.00000000e+00,4.67844505e+01,1.65503483e+01,3.14150000e+00,3.14150000e+00,-7.30696023e-02,3.14150000e+00,3.14150000e+00,4.00000000e+00,-9.90000000e+01,
2.06974100e+06,-2.88420008e-03,1.44447004e-02,9.11210012e-03,1.25000000e-01,6.25000000e-02,-6.25000000e-02,3.53767319e+01,1.21000000e+02,-8.46250000e+01,-1.74625000e+02,1.72194080e+01,3.14000010e+00,3.14000010e+00,0.00000000e+00,2.00000000e+00,1.11100000e+03,3.96024394e+00,
3.14150000e+00,-3.00000000e+00,4.67844505e+01,1.64773083e+01,3.14150000e+00,3.14150000e+00,-1.33472398e-01,3.14150000e+00,3.14150000e+00,4.00000000e+00,-1.00000000e+02,
2.06980100e+06,3.84490006e-03,2.20145993e-02,-7.57800008e-04,-1.25000000e-01,-1.87500000e-01,0.00000000e+00,3.53722610e+01,1.21000000e+02,-8.46250000e+01,-1.74625000e+02,1.52637062e+01,3.14000010e+00,3.14000010e+00,0.00000000e+00,2.00000000e+00,1.11100000e+03,3.96024394e+00,
3.14150000e+00,-3.00000000e+00,4.67844505e+01,1.66226768e+01,3.14150000e+00,3.14150000e+00,-2.93192994e-02,3.14150000e+00,3.14150000e+00,4.00000000e+00,-9.90000000e+01,
2.06986000e+06,-1.34583004e-02,-1.51396999e-02,1.97398998e-02,-6.25000000e-02,-1.25000000e-01,6.25000000e-02,3.53722610e+01,1.21000000e+02,-8.46250000e+01,-1.74625000e+02,1.66234035e+01,3.14000010e+00,3.14000010e+00,0.00000000e+00,2.00000000e+00,1.11100000e+03,3.94731712e+00,
3.14150000e+00,-3.00000000e+00,4.67844505e+01,1.69987144e+01,3.14150000e+00,3.14150000e+00,2.09854200e-01,3.14150000e+00,3.14150000e+00,4.00000000e+00,-9.90000000e+01,
2.06991100e+06,-1.00905001e-02,-4.25816998e-02,3.13844010e-02,6.25000000e-02,0.00000000e+00,-1.25000000e-01,3.53767319e+01,1.21000000e+02,-8.46250000e+01,-1.74625000e+02,1.72194080e+01,3.14000010e+00,3.14000010e+00,0.00000000e+00,2.00000000e+00,1.11100000e+03,3.96024394e+00,
3.14150000e+00,-3.00000000e+00,4.67844505e+01,1.66887703e+01,3.14150000e+00,3.14150000e+00,-2.50867009e-02,3.14150000e+00,3.14150000e+00,4.00000000e+00,-1.00000000e+02,
2.06997100e+06,-2.22715009e-02,-8.74739978e-03,2.87657008e-02,-6.25000000e-02,-6.25000000e-02,-6.25000000e-02,3.53767319e+01,1.21000000e+02,-8.46250000e+01,-1.74625000e+02,1.58596144e+01,3.14000010e+00,3.14000010e+00,0.00000000e+00,2.00000000e+00,1.11100000e+03,3.96024394e+00,
3.14150000e+00,-3.00000000e+00,4.67844505e+01,1.62725925e+01,3.14150000e+00,3.14150000e+00,-3.09265792e-01,3.14150000e+00,3.14150000e+00,4.00000000e+00,-1.01000000e+02,
2.07003000e+06,8.49649962e-03,-1.89072005e-02,2.16869991e-02,1.25000000e-01,0.00000000e+00,6.25000000e-02,3.53677902e+01,1.21000000e+02,-8.46250000e+01,-1.74625000e+02,1.67073212e+01,3.14000010e+00,3.14000010e+00,0.00000000e+00,2.00000000e+00,1.11100000e+03,3.94731712e+00,
3.14150000e+00,-3.00000000e+00,4.67844505e+01,1.68389225e+01,3.14150000e+00,3.14150000e+00,1.02873400e-01,3.14150000e+00,3.14150000e+00,4.00000000e+00,-1.01000000e+02,
2.07008100e+06,3.04470002e-03,2.24971008e-02,9.19840019e-03,6.25000000e-02,2.50000000e-01,0.00000000e+00,3.53856735e+01,1.21000000e+02,-8.46250000e+01,-1.74625000e+02,1.60317154e+01,3.14000010e+00,3.14000010e+00,0.00000000e+00,2.00000000e+00,1.11100000e+03,3.94731712e+00,
3.14150000e+00,-3.00000000e+00,4.67844505e+01,1.63487530e+01,3.14150000e+00,3.14150000e+00,-2.35305101e-01,3.14150000e+00,3.14150000e+00,4.00000000e+00,-1.01000000e+02,
2.07014000e+06,1.61863994e-02,2.51219999e-02,2.01714002e-02,6.25000000e-02,1.87500000e-01,-6.25000000e-02,3.53722610e+01,1.21000000e+02,-8.46250000e+01,-1.74625000e+02,1.73033237e+01,3.14000010e+00,3.14000010e+00,0.00000000e+00,2.00000000e+00,1.11100000e+03,3.96024394e+00,
3.14150000e+00,-3.00000000e+00,4.67844505e+01,1.61693268e+01,3.14150000e+00,3.14150000e+00,-3.64122212e-01,3.14150000e+00,3.14150000e+00,4.00000000e+00,-1.00000000e+02,
2.07021100e+06,-1.60039996e-03,9.65000014e-04,1.99124999e-02,1.25000000e-01,-6.25000000e-02,0.00000000e+00,3.53677902e+01,1.21000000e+02,-8.46250000e+01,-1.74625000e+02,1.67073212e+01,3.14000010e+00,3.14000010e+00,0.00000000e+00,2.00000000e+00,1.11100000e+03,3.94731712e+00,
3.14150000e+00,-3.00000000e+00,4.67844505e+01,1.65598145e+01,3.14150000e+00,3.14150000e+00,1.30194202e-01,3.14150000e+00,3.14150000e+00,4.00000000e+00,-1.01000000e+02,
2.07027100e+06,-8.81319959e-03,6.39239978e-03,9.02580004e-03,0.00000000e+00,-2.50000000e-01,-6.25000000e-02,3.53767319e+01,1.21000000e+02,-8.46250000e+01,-1.74625000e+02,1.65394859e+01,3.14000010e+00,3.14000010e+00,0.00000000e+00,2.00000000e+00,1.11100000e+03,3.96024394e+00,
3.14150000e+00,-3.00000000e+00,4.67844505e+01,1.64495754e+01,3.14150000e+00,3.14150000e+00,4.71104011e-02,3.14150000e+00,3.14150000e+00,4.00000000e+00,-9.90000000e+01,
2.07032900e+06,-5.44539979e-03,-2.10496001e-02,2.06703003e-02,-1.25000000e-01,-1.87500000e-01,1.87500000e-01,3.53767319e+01,1.21000000e+02,-8.46250000e+01,-1.74625000e+02,1.65394859e+01,3.14000010e+00,3.14000010e+00,0.00000000e+00,2.00000000e+00,1.11100000e+03,3.96024394e+00,
3.14150000e+00,-3.00000000e+00,4.67844505e+01,1.63376999e+01,3.14150000e+00,3.14150000e+00,-3.39833982e-02,3.14150000e+00,3.14150000e+00,4.00000000e+00,-9.80000000e+01,
2.07038200e+06,-1.05740996e-02,-2.95844991e-02,1.06277000e-02,-1.87500000e-01,-6.25000000e-02,6.25000000e-02,3.53767319e+01,1.21000000e+02,-8.46250000e+01,-1.74625000e+02,1.61995468e+01,3.14000010e+00,3.14000010e+00,0.00000000e+00,2.00000000e+00,1.11100000e+03,3.94731712e+00,
3.14150000e+00,-3.00000000e+00,4.67844505e+01,1.67810440e+01,3.14150000e+00,3.14150000e+00,2.77050406e-01,3.14150000e+00,3.14150000e+00,4.00000000e+00,-9.70000000e+01,
2.07044100e+06,1.39418999e-02,2.14249990e-03,1.01669994e-03,-1.25000000e-01,6.25000000e-02,6.25000000e-02,3.53588486e+01,1.21000000e+02,-8.46250000e+01,-1.74625000e+02,1.61952915e+01,3.14000010e+00,3.14000010e+00,0.00000000e+00,2.00000000e+00,1.11100000e+03,3.96024394e+00,
3.14150000e+00,-3.00000000e+00,4.67844505e+01,1.63964367e+01,3.14150000e+00,3.14150000e+00,-5.54980012e-03,3.14150000e+00,3.14150000e+00,4.00000000e+00,-9.70000000e+01,
2.07049200e+06,0.00000000e+00,0.00000000e+00,0.00000000e+00,-1.25000000e-01,1.25000000e-01,0.00000000e+00,3.53677902e+01,1.21000000e+02,-8.46250000e+01,-1.74625000e+02,1.67073212e+01,3.14000010e+00,3.14000010e+00,0.00000000e+00,2.00000000e+00,1.11100000e+03,3.96024394e+00,
3.14150000e+00,-3.00000000e+00,4.67844505e+01,1.61928272e+01,3.14150000e+00,3.14150000e+00,-1.36399597e-01,3.14150000e+00,3.14150000e+00,4.00000000e+00,-9.60000000e+01,
2.07055100e+06,9.45719983e-03,1.75521001e-02,3.00414003e-02,1.25000000e-01,1.25000000e-01,-1.25000000e-01,3.53767319e+01,1.21000000e+02,-8.46250000e+01,-1.74625000e+02,1.58596144e+01,3.14000010e+00,3.14000010e+00,0.00000000e+00,2.00000000e+00,1.11100000e+03,3.94731712e+00,
3.14150000e+00,-3.00000000e+00,4.67844505e+01,1.64902287e+01,3.14150000e+00,3.14150000e+00,6.17421009e-02,3.14150000e+00,3.14150000e+00,4.00000000e+00,-9.60000000e+01,
2.07061100e+06,-7.21269986e-03,5.42740012e-03,-1.08866999e-02,-6.25000000e-02,-1.87500000e-01,-1.25000000e-01,3.53677902e+01,1.21000000e+02,-8.46250000e+01,-1.74625000e+02,1.60274506e+01,3.14000010e+00,3.14000010e+00,0.00000000e+00,2.00000000e+00,1.11100000e+03,3.96024394e+00,
3.14150000e+00,-3.00000000e+00,4.67844505e+01,1.64994831e+01,3.14150000e+00,3.14150000e+00,6.22925013e-02,3.14150000e+00,3.14150000e+00,4.00000000e+00,-9.50000000e+01,
2.07066200e+06,-5.44837005e-02,-2.20496003e-02,6.73339982e-03,6.25000000e-02,-6.25000000e-02,0.00000000e+00,3.53767319e+01,1.21000000e+02,-8.46250000e+01,-1.74625000e+02,1.65394859e+01,3.14000010e+00,3.14000010e+00,0.00000000e+00,2.00000000e+00,1.11100000e+03,3.96024394e+00,
3.14150000e+00,-3.00000000e+00,4.67844505e+01,1.65365887e+01,3.14150000e+00,3.14150000e+00,7.46131986e-02,3.14150000e+00,3.14150000e+00,4.00000000e+00,-9.70000000e+01,
2.07072200e+06,-5.92890009e-03,-8.05229973e-03,-8.63000023e-05,-3.75000000e-01,6.25000000e-02,0.00000000e+00,3.53856735e+01,1.21000000e+02,-8.46250000e+01,-1.74625000e+02,1.63716545e+01,3.14000010e+00,3.14000010e+00,0.00000000e+00,2.00000000e+00,1.11100000e+03,3.96024394e+00,
3.14150000e+00,-3.00000000e+00,4.67844505e+01,1.65744057e+01,3.14150000e+00,3.14150000e+00,9.83325019e-02,3.14150000e+00,3.14150000e+00,4.00000000e+00,-9.60000000e+01,
2.07078000e+06,-3.15681994e-02,1.06423004e-02,1.70348994e-02,6.25000000e-02,-2.50000000e-01,2.50000000e-01,3.53767319e+01,1.21000000e+02,-8.46250000e+01,-1.74625000e+02,1.61995468e+01,3.14000010e+00,3.14000010e+00,0.00000000e+00,2.00000000e+00,1.11100000e+03,3.94731712e+00,
3.14150000e+00,-3.00000000e+00,4.67844505e+01,1.64887333e+01,3.14150000e+00,3.14150000e+00,4.57770005e-02,3.14150000e+00,3.14150000e+00,4.00000000e+00,-9.60000000e+01,
2.07083200e+06,2.56759999e-03,-2.69594993e-02,2.16007009e-02,-1.87500000e-01,6.25000000e-02,1.87500000e-01,3.53767319e+01,1.21000000e+02,-8.46250000e+01,-1.74625000e+02,1.65394859e+01,3.14000010e+00,3.14000010e+00,0.00000000e+00,2.00000000e+00,1.11100000e+03,3.96024394e+00,
3.14150000e+00,-3.00000000e+00,4.67844505e+01,1.62594357e+01,3.14150000e+00,3.14150000e+00,-1.03553697e-01,3.14150000e+00,3.14150000e+00,4.00000000e+00,-9.50000000e+01,
2.07089100e+06,-2.40070000e-03,1.44739996e-03,2.98686996e-02,-1.87500000e-01,1.25000000e-01,6.25000000e-02,3.53767319e+01,1.21000000e+02,-8.46250000e+01,-1.74625000e+02,1.61995468e+01,3.14000010e+00,3.14000010e+00,0.00000000e+00,2.00000000e+00,1.11100000e+03,3.96024394e+00,
3.14150000e+00,-3.00000000e+00,4.67844505e+01,1.62065887e+01,3.14150000e+00,3.14150000e+00,-1.15052298e-01,3.14150000e+00,3.14150000e+00,4.00000000e+00,-9.30000000e+01,
2.07094300e+06,-1.60039996e-03,9.65000014e-04,1.99124999e-02,4.37500000e-01,-1.25000000e-01,1.25000000e-01,3.53812027e+01,1.21000000e+02,-8.46250000e+01,-1.74625000e+02,1.64555702e+01,3.14000010e+00,3.14000010e+00,0.00000000e+00,2.00000000e+00,1.11100000e+03,3.96024394e+00,
3.14150000e+00,-3.00000000e+00,4.67844505e+01,1.62437878e+01,3.14150000e+00,3.14150000e+00,-7.93785974e-02,3.14150000e+00,3.14150000e+00,4.00000000e+00,-9.30000000e+01,
2.07100200e+06,8.65700003e-03,1.80345997e-02,3.99976000e-02,-6.25000000e-02,0.00000000e+00,-1.87500000e-01,3.53767319e+01,1.21000000e+02,-8.46250000e+01,-1.74625000e+02,1.58596144e+01,3.14000010e+00,3.14000010e+00,0.00000000e+00,2.00000000e+00,1.11100000e+03,3.94731712e+00,
3.14150000e+00,-3.00000000e+00,4.67844505e+01,1.67160587e+01,3.14150000e+00,3.14150000e+00,2.36327201e-01,3.14150000e+00,3.14150000e+00,4.00000000e+00,-9.20000000e+01,
2.07106100e+06,-3.02843992e-02,-2.83750007e-03,2.78353002e-02,1.87500000e-01,6.25000000e-02,-1.25000000e-01,3.53722610e+01,1.21000000e+02,-8.46250000e+01,-1.74625000e+02,1.66234035e+01,3.14000010e+00,3.14000010e+00,0.00000000e+00,2.00000000e+00,1.11100000e+03,3.96024394e+00,
3.14150000e+00,-3.00000000e+00,4.67844505e+01,1.64404793e+01,3.14150000e+00,3.14150000e+00,4.20717001e-02,3.14150000e+00,3.14150000e+00,4.00000000e+00,-9.20000000e+01,
2.07111200e+06,-3.54131013e-02,-1.13722999e-02,1.77926999e-02,0.00000000e+00,6.25000000e-02,6.25000000e-02,3.53677902e+01,1.21000000e+02,-8.46250000e+01,-1.74625000e+02,1.67073212e+01,3.14000010e+00,3.14000010e+00,0.00000000e+00,2.00000000e+00,1.11100000e+03,3.94731712e+00,
3.14150000e+00,-3.00000000e+00,4.67844505e+01,1.64309235e+01,3.14150000e+00,3.14150000e+00,3.48134004e-02,3.14150000e+00,3.14150000e+00,4.00000000e+00,-9.20000000e+01,
2.07117200e+06,-5.73679991e-02,-7.60480016e-03,1.58454999e-02,-3.75000000e-01,0.00000000e+00,6.25000000e-02,3.53722610e+01,1.21000000e+02,-8.46250000e+01,-1.74625000e+02,1.69633579e+01,3.14000010e+00,3.14000010e+00,0.00000000e+00,2.00000000e+00,1.11100000e+03,3.94731712e+00,
3.14150000e+00,-3.00000000e+00,4.67844505e+01,1.66642303e+01,3.14150000e+00,3.14150000e+00,1.97380394e-01,3.14150000e+00,3.14150000e+00,4.00000000e+00,-9.20000000e+01,
2.07122900e+06,-1.76090002e-03,-3.59768011e-02,1.60189997e-03,0.00000000e+00,-2.50000000e-01,2.50000000e-01,3.53722610e+01,1.21000000e+02,-8.46250000e+01,-1.74625000e+02,1.73033237e+01,3.14000010e+00,3.14000010e+00,0.00000000e+00,2.00000000e+00,1.11100000e+03,3.94731712e+00,
3.14150000e+00,-3.00000000e+00,4.67844505e+01,1.64090691e+01,3.14150000e+00,3.14150000e+00,2.73064002e-02,3.14150000e+00,3.14150000e+00,4.00000000e+00,-9.20000000e+01,
2.07128200e+06,-1.60039996e-03,9.65000014e-04,1.99124999e-02,-2.50000000e-01,6.25000000e-02,6.25000000e-02,3.53767319e+01,1.21000000e+02,-8.46250000e+01,-1.74625000e+02,1.72194080e+01,3.14000010e+00,3.14000010e+00,0.00000000e+00,2.00000000e+00,1.11100000e+03,3.96024394e+00,
3.14150000e+00,-3.00000000e+00,4.67844505e+01,1.64354858e+01,3.14150000e+00,3.14150000e+00,5.46201989e-02,3.14150000e+00,3.14150000e+00,4.00000000e+00,-9.20000000e+01,
2.07134100e+06,4.31094989e-02,-7.05240015e-03,1.38506005e-02,-1.87500000e-01,6.25000000e-02,2.50000000e-01,3.53767319e+01,1.21000000e+02,-8.46250000e+01,-1.74625000e+02,1.65394859e+01,3.14000010e+00,3.14000010e+00,0.00000000e+00,2.00000000e+00,1.11100000e+03,3.96024394e+00,
3.14150000e+00,-3.00000000e+00,4.67844505e+01,1.66305962e+01,3.14150000e+00,3.14150000e+00,1.93690106e-01,3.14150000e+00,3.14150000e+00,4.00000000e+00,-9.20000000e+01,
2.07139300e+06,1.18578998e-02,1.61047000e-02,1.72600005e-04,6.25000000e-02,-1.25000000e-01,1.25000000e-01,3.53767319e+01,1.21000000e+02,-8.46250000e+01,-1.74625000e+02,1.55196924e+01,3.14000010e+00,3.14000010e+00,0.00000000e+00,2.00000000e+00,1.11100000e+03,3.96024394e+00,
3.14150000e+00,-3.00000000e+00,4.67844505e+01,1.65984459e+01,3.14150000e+00,3.14150000e+00,1.49472803e-01,3.14150000e+00,3.14150000e+00,4.00000000e+00,-9.10000000e+01,
2.07145200e+06,-1.04136001e-02,7.35729979e-03,2.89383009e-02,-1.25000000e-01,-1.87500000e-01,-6.25000000e-02,3.53767319e+01,1.21000000e+02,-8.46250000e+01,-1.74625000e+02,1.61995468e+01,3.14000010e+00,3.14000010e+00,0.00000000e+00,2.00000000e+00,1.11100000e+03,3.94731712e+00,
3.14150000e+00,-3.00000000e+00,4.67844505e+01,1.66260662e+01,3.14150000e+00,3.14150000e+00,1.44634306e-01,3.14150000e+00,3.14150000e+00,4.00000000e+00,-9.20000000e+01,
2.07150400e+06,-1.39418999e-02,-2.14249990e-03,-1.01669994e-03,-1.87500000e-01,0.00000000e+00,0.00000000e+00,3.53767319e+01,1.21000000e+02,-8.46250000e+01,-1.74625000e+02,1.65394859e+01,3.14000010e+00,3.14000010e+00,0.00000000e+00,2.00000000e+00,1.11100000e+03,3.94731712e+00,
3.14150000e+00,-3.00000000e+00,4.67844505e+01,1.63517609e+01,3.14150000e+00,3.14150000e+00,-5.54982014e-02,3.14150000e+00,3.14150000e+00,4.00000000e+00,-9.30000000e+01,
2.07156300e+06,-4.80711982e-02,-2.69945003e-02,2.75762994e-02,-2.50000000e-01,0.00000000e+00,1.25000000e-01,3.53677902e+01,1.21000000e+02,-8.46250000e+01,-1.74625000e+02,1.60274506e+01,3.14000010e+00,3.14000010e+00,0.00000000e+00,2.00000000e+00,1.11100000e+03,3.96024394e+00,
3.14150000e+00,-3.00000000e+00,4.67844505e+01,1.63534603e+01,3.14150000e+00,3.14150000e+00,-6.16565011e-02,3.14150000e+00,3.14150000e+00,4.00000000e+00,-9.30000000e+01,
2.07162200e+06,-8.00199981e-04,4.82500007e-04,9.95619968e-03,-1.25000000e-01,0.00000000e+00,1.25000000e-01,3.53767319e+01,1.21000000e+02,-8.46250000e+01,-1.74625000e+02,1.65394859e+01,3.14000010e+00,3.14000010e+00,0.00000000e+00,2.00000000e+00,1.11100000e+03,3.94731712e+00,
3.14150000e+00,-3.00000000e+00,4.67844505e+01,1.61345901e+01,3.14150000e+00,3.14150000e+00,-2.16569602e-01,3.14150000e+00,3.14150000e+00,4.00000000e+00,-9.30000000e+01,
2.07167400e+06,0.00000000e+00,0.00000000e+00,0.00000000e+00,-1.87500000e-01,-6.25000000e-02,1.25000000e-01,3.53767319e+01,1.21000000e+02,-8.46250000e+01,-1.74625000e+02,1.65394859e+01,3.14000010e+00,3.14000010e+00,0.00000000e+00,2.00000000e+00,1.11100000e+03,3.97317076e+00,
3.14150000e+00,-3.00000000e+00,4.67844505e+01,1.69090538e+01,3.14150000e+00,3.14150000e+00,3.11160713e-01,3.14150000e+00,3.14150000e+00,4.00000000e+00,-9.30000000e+01,
2.07173300e+06,2.91676000e-02,-9.19490028e-03,1.28338002e-02,-1.87500000e-01,6.25000000e-02,1.25000000e-01,3.53767319e+01,1.21000000e+02,-8.46250000e+01,-1.74625000e+02,1.65394859e+01,3.14000010e+00,3.14000010e+00,0.00000000e+00,2.00000000e+00,1.11100000e+03,3.96024394e+00,
3.14150000e+00,-3.00000000e+00,4.67844505e+01,1.65321312e+01,3.14150000e+00,3.14150000e+00,5.37807010e-02,3.14150000e+00,3.14150000e+00,4.00000000e+00,-9.20000000e+01,
2.07179100e+06,-8.01299978e-03,5.90990018e-03,-9.30399983e-04,0.00000000e+00,-6.25000000e-02,1.25000000e-01,3.53767319e+01,1.21000000e+02,-8.46250000e+01,-1.74625000e+02,1.61995468e+01,3.14000010e+00,3.14000010e+00,0.00000000e+00,2.00000000e+00,1.11100000e+03,3.94731712e+00,
3.14150000e+00,-3.00000000e+00,4.67844505e+01,1.64297638e+01,3.14150000e+00,3.14150000e+00,-1.45346997e-02,3.14150000e+00,3.14150000e+00,4.00000000e+00,-9.10000000e+01,
2.07184300e+06,-1.85870007e-02,-2.36745998e-02,9.69730038e-03,0.00000000e+00,6.25000000e-02,1.25000000e-01,3.53812027e+01,1.21000000e+02,-8.46250000e+01,-1.74625000e+02,1.67955246e+01,3.14000010e+00,3.14000010e+00,0.00000000e+00,2.00000000e+00,1.11100000e+03,3.94731712e+00,
3.14150000e+00,-3.00000000e+00,4.67844505e+01,1.65831833e+01,3.14150000e+00,3.14150000e+00,8.36703032e-02,3.14150000e+00,3.14150000e+00,4.00000000e+00,-9.20000000e+01,
2.07190200e+06,-1.34583004e-02,-1.51396999e-02,1.97398998e-02,1.25000000e-01,-1.87500000e-01,0.00000000e+00,3.53812027e+01,1.21000000e+02,-8.46250000e+01,-1.74625000e+02,1.57756968e+01,3.14000010e+00,3.14000010e+00,0.00000000e+00,2.00000000e+00,1.11100000e+03,3.94731712e+00,
3.14150000e+00,-3.00000000e+00,4.67844505e+01,1.67076893e+01,3.14150000e+00,3.14150000e+00,1.65120602e-01,3.14150000e+00,3.14150000e+00,4.00000000e+00,-9.30000000e+01,
2.07195400e+06,-2.35552993e-02,4.73240018e-03,1.79653000e-02,0.00000000e+00,3.12500000e-01,-6.25000000e-02,3.53722610e+01,1.21000000e+02,-8.46250000e+01,-1.74625000e+02,1.59435320e+01,3.14000010e+00,3.14000010e+00,0.00000000e+00,2.00000000e+00,1.11100000e+03,3.96024394e+00,
3.14150000e+00,-3.00000000e+00,4.67844505e+01,1.68496761e+01,3.14150000e+00,3.14150000e+00,2.19648197e-01,3.14150000e+00,3.14150000e+00,4.00000000e+00,-9.50000000e+01,
2.07201300e+06,1.31417001e-02,2.62490008e-03,1.09730000e-02,0.00000000e+00,1.25000000e-01,0.00000000e+00,3.53767319e+01,1.21000000e+02,-8.46250000e+01,-1.74625000e+02,1.72194080e+01,3.14000010e+00,3.14000010e+00,0.00000000e+00,2.00000000e+00,1.11100000e+03,3.94731712e+00,
3.14150000e+00,-3.00000000e+00,4.67844505e+01,1.65200768e+01,3.14150000e+00,3.14150000e+00,1.58529002e-02,3.14150000e+00,3.14150000e+00,4.00000000e+00,-9.50000000e+01,
2.07207300e+06,-1.08971996e-02,2.03546006e-02,8.18169955e-03,-6.25000000e-02,0.00000000e+00,1.25000000e-01,3.53812027e+01,1.21000000e+02,-8.46250000e+01,-1.74625000e+02,1.61156311e+01,3.14000010e+00,3.14000010e+00,0.00000000e+00,2.00000000e+00,1.11100000e+03,3.96024394e+00,
3.14150000e+00,-3.00000000e+00,4.67844505e+01,1.66169701e+01,3.14150000e+00,3.14150000e+00,9.22880024e-02,3.14150000e+00,3.14150000e+00,4.00000000e+00,-9.60000000e+01,
2.07212400e+06,1.18578998e-02,1.61047000e-02,1.72600005e-04,-1.87500000e-01,-1.87500000e-01,-6.25000000e-02,3.53767319e+01,1.21000000e+02,-8.46250000e+01,-1.74625000e+02,1.61995468e+01,3.14000010e+00,3.14000010e+00,0.00000000e+00,2.00000000e+00,1.11100000e+03,3.96024394e+00,
3.14150000e+00,-3.00000000e+00,4.67844505e+01,1.66408577e+01,3.14150000e+00,3.14150000e+00,8.91532972e-02,3.14150000e+00,3.14150000e+00,4.00000000e+00,-9.50000000e+01,
2.07218300e+06,-1.84266008e-02,1.32672004e-02,2.80079003e-02,-1.25000000e-01,-3.75000000e-01,3.12500000e-01,3.53856735e+01,1.21000000e+02,-8.46250000e+01,-1.74625000e+02,1.63716545e+01,3.14000010e+00,3.14000010e+00,0.00000000e+00,2.00000000e+00,1.11100000e+03,3.96024394e+00,
3.14150000e+00,-3.00000000e+00,4.67844505e+01,1.63067780e+01,3.14150000e+00,3.14150000e+00,-1.44506201e-01,3.14150000e+00,3.14150000e+00,4.00000000e+00,-9.50000000e+01,
2.07224200e+06,-1.42585002e-02,-1.46572003e-02,2.96960995e-02,-3.12500000e-01,-2.50000000e-01,6.25000000e-02,3.53722610e+01,1.21000000e+02,-8.46250000e+01,-1.74625000e+02,1.66234035e+01,3.14000010e+00,3.14000010e+00,0.00000000e+00,2.00000000e+00,1.11100000e+03,3.94731712e+00,
3.14150000e+00,-3.00000000e+00,4.67844505e+01,1.64208202e+01,3.14150000e+00,3.14150000e+00,-6.09855019e-02,3.14150000e+00,3.14150000e+00,4.00000000e+00,-9.30000000e+01,
2.07229400e+06,-4.67873998e-02,-4.04742993e-02,3.83767001e-02,-1.87500000e-01,0.00000000e+00,1.87500000e-01,3.53812027e+01,1.21000000e+02,-8.46250000e+01,-1.74625000e+02,1.64555702e+01,3.14000010e+00,3.14000010e+00,0.00000000e+00,2.00000000e+00,1.11100000e+03,3.94731712e+00,
3.14150000e+00,-3.00000000e+00,4.67844505e+01,1.66556492e+01,3.14150000e+00,3.14150000e+00,9.72324014e-02,3.14150000e+00,3.14150000e+00,4.00000000e+00,-9.20000000e+01,
2.07235300e+06,1.28380000e-03,-1.34798000e-02,1.08003998e-02,-6.25000000e-02,0.00000000e+00,6.25000000e-02,3.53767319e+01,1.21000000e+02,-8.46250000e+01,-1.74625000e+02,1.72194080e+01,3.14000010e+00,3.14000010e+00,0.00000000e+00,2.00000000e+00,1.11100000e+03,3.96024394e+00,
3.14150000e+00,-3.00000000e+00,4.67844505e+01,1.64899502e+01,3.14150000e+00,3.14150000e+00,-1.32154999e-02,3.14150000e+00,3.14150000e+00,4.00000000e+00,-9.20000000e+01,
2.07240500e+06,2.40388997e-02,-1.77296996e-02,2.79129995e-03,-6.25000000e-02,0.00000000e+00,0.00000000e+00,3.53856735e+01,1.21000000e+02,-8.46250000e+01,-1.74625000e+02,1.56917810e+01,3.14000010e+00,3.14000010e+00,0.00000000e+00,2.00000000e+00,1.11100000e+03,3.96024394e+00,
3.14150000e+00,-3.00000000e+00,4.67844505e+01,1.63682213e+01,3.14150000e+00,3.14150000e+00,-7.43115023e-02,3.14150000e+00,3.14150000e+00,4.00000000e+00,-9.10000000e+01,
2.07246400e+06,4.32850001e-03,9.01729986e-03,1.99988000e-02,2.50000000e-01,-6.25000000e-02,-1.25000000e-01,3.53812027e+01,1.21000000e+02,-8.46250000e+01,-1.74625000e+02,1.64555702e+01,3.14000010e+00,3.14000010e+00,0.00000000e+00,2.00000000e+00,1.11100000e+03,3.96024394e+00,
3.14150000e+00,-3.00000000e+00,4.67844505e+01,1.68216743e+01,3.14150000e+00,3.14150000e+00,2.84988195e-01,3.14150000e+00,3.14150000e+00,4.00000000e+00,-9.10000000e+01,
2.07252300e+06,-4.96830000e-03,2.84070000e-02,8.26799963e-03,-6.25000000e-02,0.00000000e+00,0.00000000e+00,3.53722610e+01,1.21000000e+02,-8.46250000e+01,-1.74625000e+02,1.69633579e+01,3.14000010e+00,3.14000010e+00,0.00000000e+00,2.00000000e+00,1.11100000e+03,3.96024394e+00,
3.14150000e+00,-3.00000000e+00,4.67844505e+01,1.67401505e+01,3.14150000e+00,3.14150000e+00,2.17056602e-01,3.14150000e+00,3.14150000e+00,4.00000000e+00,-9.00000000e+01,
2.07257500e+06,-3.36522982e-02,2.46045999e-02,1.61908008e-02,6.25000000e-02,-2.50000000e-01,0.00000000e+00,3.53767319e+01,1.21000000e+02,-8.46250000e+01,-1.74625000e+02,1.65394859e+01,3.14000010e+00,3.14000010e+00,0.00000000e+00,2.00000000e+00,1.11100000e+03,3.96024394e+00,
3.14150000e+00,-3.00000000e+00,4.67844505e+01,1.63318157e+01,3.14150000e+00,3.14150000e+00,-5.69025017e-02,3.14150000e+00,3.14150000e+00,4.00000000e+00,-9.00000000e+01,
2.07263400e+06,-8.32960010e-03,-6.60490012e-03,2.97823995e-02,-3.75000000e-01,0.00000000e+00,1.25000000e-01,3.53767319e+01,1.21000000e+02,-8.46250000e+01,-1.74625000e+02,1.65394859e+01,3.14000010e+00,3.14000010e+00,0.00000000e+00,2.00000000e+00,1.11100000e+03,3.96024394e+00,
3.14150000e+00,-3.00000000e+00,4.67844505e+01,1.62514954e+01,3.14150000e+00,3.14150000e+00,-1.19827300e-01,3.14150000e+00,3.14150000e+00,4.00000000e+00,-9.10000000e+01,
2.07269200e+06,-4.03814018e-02,1.70347001e-02,2.60607004e-02,-3.12500000e-01,-1.87500000e-01,6.25000000e-02,3.53812027e+01,1.21000000e+02,-8.46250000e+01,-1.74625000e+02,1.57756968e+01,3.14000010e+00,3.14000010e+00,0.00000000e+00,2.00000000e+00,1.11100000e+03,3.94731712e+00,
3.14150000e+00,-3.00000000e+00,4.67844505e+01,1.64358597e+01,3.14150000e+00,3.14150000e+00,-1.34600006e-04,3.14150000e+00,3.14150000e+00,4.00000000e+00,-9.10000000e+01,
2.07274400e+06,4.83599986e-04,-1.29973004e-02,2.07566004e-02,-3.12500000e-01,0.00000000e+00,1.25000000e-01,3.53767319e+01,1.21000000e+02,-8.46250000e+01,-1.74625000e+02,1.68794403e+01,3.14000010e+00,3.14000010e+00,0.00000000e+00,2.00000000e+00,1.11100000e+03,3.94731712e+00,
3.14150000e+00,-3.00000000e+00,4.67844505e+01,1.60407810e+01,3.14150000e+00,3.14150000e+00,-2.63399094e-01,3.14150000e+00,3.14150000e+00,4.00000000e+00,-9.10000000e+01,
2.07280300e+06,2.40388997e-02,-1.77296996e-02,2.79129995e-03,-3.12500000e-01,1.25000000e-01,6.25000000e-02,3.53767319e+01,1.21000000e+02,-8.46250000e+01,-1.74625000e+02,1.65394859e+01,3.14000010e+00,3.14000010e+00,0.00000000e+00,2.00000000e+00,1.11100000e+03,3.94731712e+00,
3.14150000e+00,-3.00000000e+00,4.67844505e+01,1.64546185e+01,3.14150000e+00,3.14150000e+00,2.41071004e-02,3.14150000e+00,3.14150000e+00,4.00000000e+00,-9.20000000e+01,
2.07285500e+06,1.81099009e-02,-2.57820003e-02,2.70500011e-03,1.25000000e-01,0.00000000e+00,1.25000000e-01,3.53856735e+01,1.21000000e+02,-8.46250000e+01,-1.74625000e+02,1.60317154e+01,3.14000010e+00,3.14000010e+00,0.00000000e+00,2.00000000e+00,1.11100000e+03,3.96024394e+00,
3.14150000e+00,-3.00000000e+00,4.67844505e+01,1.66503468e+01,3.14150000e+00,3.14150000e+00,1.58323899e-01,3.14150000e+00,3.14150000e+00,4.00000000e+00,-9.30000000e+01,
2.07291400e+06,2.45223995e-02,-3.07270009e-02,2.35479008e-02,0.00000000e+00,6.25000000e-02,-6.25000000e-02,3.53812027e+01,1.21000000e+02,-8.46250000e+01,-1.74625000e+02,1.67955246e+01,3.14000010e+00,3.14000010e+00,0.00000000e+00,2.00000000e+00,1.11100000e+03,3.96024394e+00,
3.14150000e+00,-3.00000000e+00,4.67844505e+01,1.63638058e+01,3.14150000e+00,3.14150000e+00,-2.74721999e-02,3.14150000e+00,3.14150000e+00,4.00000000e+00,-9.10000000e+01,
2.07297400e+06,-5.89683987e-02,-6.63990015e-03,3.57579999e-02,1.25000000e-01,6.25000000e-02,-1.87500000e-01,3.53722610e+01,1.21000000e+02,-8.46250000e+01,-1.74625000e+02,1.62834644e+01,3.14000010e+00,3.14000010e+00,0.00000000e+00,2.00000000e+00,1.11100000e+03,3.96024394e+00,
3.14150000e+00,-3.00000000e+00,4.67844505e+01,1.64949760e+01,3.14150000e+00,3.14150000e+00,9.36148018e-02,3.14150000e+00,3.14150000e+00,4.00000000e+00,-9.20000000e+01,
2.07302500e+06,-2.48390995e-02,1.82121992e-02,7.16499984e-03,0.00000000e+00,6.25000000e-02,1.25000000e-01,3.53722610e+01,1.21000000e+02,-8.46250000e+01,-1.74625000e+02,1.66234035e+01,3.14000010e+00,3.14000010e+00,0.00000000e+00,2.00000000e+00,1.11100000e+03,3.96024394e+00,
3.14150000e+00,-3.00000000e+00,4.67844505e+01,1.58432217e+01,3.14150000e+00,3.14150000e+00,-3.33000302e-01,3.14150000e+00,3.14150000e+00,4.00000000e+00,-9.30000000e+01,
2.07308400e+06,-2.77232993e-02,3.26569006e-02,1.62771009e-02,-3.12500000e-01,0.00000000e+00,1.25000000e-01,3.53812027e+01,1.21000000e+02,-8.46250000e+01,-1.74625000e+02,1.64555702e+01,3.14000010e+00,3.14000010e+00,0.00000000e+00,2.00000000e+00,1.11100000e+03,3.94731712e+00,
3.14150000e+00,-3.00000000e+00,4.67844505e+01,1.64528065e+01,3.14150000e+00,3.14150000e+00,1.13029599e-01,3.14150000e+00,3.14150000e+00,4.00000000e+00,-9.20000000e+01,
2.07314300e+06,4.32850001e-03,9.01729986e-03,1.99988000e-02,-2.50000000e-01,-6.25000000e-02,3.12500000e-01,3.53767319e+01,1.21000000e+02,-8.46250000e+01,-1.74625000e+02,1.61995468e+01,3.14000010e+00,3.14000010e+00,0.00000000e+00,2.00000000e+00,1.11100000e+03,3.96024394e+00,
3.14150000e+00,-3.00000000e+00,4.67844505e+01,1.65201206e+01,3.14150000e+00,3.14150000e+00,1.58387303e-01,3.14150000e+00,3.14150000e+00,4.00000000e+00,-9.50000000e+01,
2.07319500e+06,3.30124982e-02,1.28196999e-02,1.20759998e-02,-4.37500000e-01,1.25000000e-01,1.25000000e-01,3.53812027e+01,1.21000000e+02,-8.46250000e+01,-1.74625000e+02,1.64555702e+01,3.14000010e+00,3.14000010e+00,0.00000000e+00,2.00000000e+00,1.11100000e+03,3.94731712e+00,
3.14150000e+00,-3.00000000e+00,4.67844505e+01,1.65672474e+01,3.14150000e+00,3.14150000e+00,1.62192300e-01,3.14150000e+00,3.14150000e+00,4.00000000e+00,-9.60000000e+01,
2.07325400e+06,1.52257001e-02,-1.13372998e-02,1.18171005e-02,-1.87500000e-01,-1.87500000e-01,1.25000000e-01,3.53767319e+01,1.21000000e+02,-8.46250000e+01,-1.74625000e+02,1.61995468e+01,3.14000010e+00,3.14000010e+00,0.00000000e+00,2.00000000e+00,1.11100000e+03,3.94731712e+00,
3.14150000e+00,-3.00000000e+00,4.67844505e+01,1.64109001e+01,3.14150000e+00,3.14150000e+00,2.77027003e-02,3.14150000e+00,3.14150000e+00,4.00000000e+00,-9.60000000e+01,
2.07330500e+06,2.06774995e-02,-5.27415983e-02,2.43056994e-02,-6.25000000e-02,0.00000000e+00,-6.25000000e-02,3.53722610e+01,1.21000000e+02,-8.46250000e+01,-1.74625000e+02,1.66234035e+01,3.14000010e+00,3.14000010e+00,0.00000000e+00,2.00000000e+00,1.11100000e+03,3.96024394e+00,
3.14150000e+00,-3.00000000e+00,4.67844505e+01,1.65932961e+01,3.14150000e+00,3.14150000e+00,1.36227697e-01,3.14150000e+00,3.14150000e+00,4.00000000e+00,-9.50000000e+01,
2.07336500e+06,-5.60842007e-02,-2.10845992e-02,2.66459007e-02,1.25000000e-01,-1.87500000e-01,0.00000000e+00,3.53767319e+01,1.21000000e+02,-8.46250000e+01,-1.74625000e+02,1.61995468e+01,3.14000010e+00,3.14000010e+00,0.00000000e+00,2.00000000e+00,1.11100000e+03,3.96024394e+00,
3.14150000e+00,-3.00000000e+00,4.67844505e+01,1.65504532e+01,3.14150000e+00,3.14150000e+00,1.09678701e-01,3.14150000e+00,3.14150000e+00,4.00000000e+00,-9.50000000e+01,
2.07342400e+06,-2.45159008e-02,-3.17269005e-02,9.61100031e-03,1.25000000e-01,6.25000000e-02,1.25000000e-01,3.53812027e+01,1.21000000e+02,-8.46250000e+01,-1.74625000e+02,1.64555702e+01,3.14000010e+00,3.14000010e+00,0.00000000e+00,2.00000000e+00,1.11100000e+03,3.96024394e+00,
3.14150000e+00,-3.00000000e+00,4.67844505e+01,1.66580486e+01,3.14150000e+00,3.14150000e+00,2.12094605e-01,3.14150000e+00,3.14150000e+00,4.00000000e+00,-9.50000000e+01,
2.07347600e+06,-3.95811982e-02,1.65522005e-02,1.61045007e-02,-6.25000000e-02,1.87500000e-01,6.25000000e-02,3.53767319e+01,1.21000000e+02,-8.46250000e+01,-1.74625000e+02,1.68794403e+01,3.14000010e+00,3.14000010e+00,0.00000000e+00,2.00000000e+00,1.11100000e+03,3.96024394e+00,
3.14150000e+00,-3.00000000e+00,4.67844505e+01,1.63523464e+01,3.14150000e+00,3.14150000e+00,-6.35199994e-03,3.14150000e+00,3.14150000e+00,4.00000000e+00,-9.30000000e+01,
2.07353500e+06,3.30124982e-02,1.28196999e-02,1.20759998e-02,-1.87500000e-01,6.25000000e-02,6.25000000e-02,3.53812027e+01,1.21000000e+02,-8.46250000e+01,-1.74625000e+02,1.64555702e+01,3.14000010e+00,3.14000010e+00,0.00000000e+00,2.00000000e+00,1.11100000e+03,3.94731712e+00,
3.14150000e+00,-3.00000000e+00,4.67844505e+01,1.62497673e+01,3.14150000e+00,3.14150000e+00,-9.00477022e-02,3.14150000e+00,3.14150000e+00,4.00000000e+00,-9.20000000e+01,
2.07359200e+06,1.60399999e-04,3.69418003e-02,1.83106009e-02,-3.12500000e-01,0.00000000e+00,1.87500000e-01,3.53856735e+01,1.21000000e+02,-8.46250000e+01,-1.74625000e+02,1.60317154e+01,3.14000010e+00,3.14000010e+00,0.00000000e+00,2.00000000e+00,1.11100000e+03,3.96024394e+00,
3.14150000e+00,-3.00000000e+00,4.67844505e+01,1.65985718e+01,3.14150000e+00,3.14150000e+00,1.52413905e-01,3.14150000e+00,3.14150000e+00,4.00000000e+00,-9.10000000e+01,
2.07364500e+06,-9.61340033e-03,6.87489985e-03,1.89820994e-02,-1.87500000e-01,-1.87500000e-01,-1.25000000e-01,3.53856735e+01,1.21000000e+02,-8.46250000e+01,-1.74625000e+02,1.70515766e+01,3.14000010e+00,3.14000010e+00,0.00000000e+00,2.00000000e+00,1.11100000e+03,3.94731712e+00,
3.14150000e+00,-3.00000000e+00,4.67844505e+01,1.63352604e+01,3.14150000e+00,3.14150000e+00,-4.33963984e-02,3.14150000e+00,3.14150000e+00,4.00000000e+00,-9.10000000e+01,
2.07370400e+06,-1.77868009e-02,-2.41570007e-02,-2.58899992e-04,-1.87500000e-01,-2.50000000e-01,6.25000000e-02,3.53812027e+01,1.21000000e+02,-8.46250000e+01,-1.74625000e+02,1.50958691e+01,3.14000010e+00,3.14000010e+00,0.00000000e+00,2.00000000e+00,1.11100000e+03,3.94731712e+00,
3.14150000e+00,-3.00000000e+00,4.67844505e+01,1.63055382e+01,3.14150000e+00,3.14150000e+00,-7.27263018e-02,3.14150000e+00,3.14150000e+00,4.00000000e+00,-9.10000000e+01,
2.07375600e+06,-2.32321005e-02,-4.52066995e-02,2.04114001e-02,-6.25000000e-02,-1.25000000e-01,1.25000000e-01,3.53767319e+01,1.21000000e+02,-8.46250000e+01,-1.74625000e+02,1.72194080e+01,3.14000010e+00,3.14000010e+00,0.00000000e+00,2.00000000e+00,1.11100000e+03,3.96024394e+00,
3.14150000e+00,-3.00000000e+00,4.67844505e+01,1.67765369e+01,3.14150000e+00,3.14150000e+00,2.04299107e-01,3.14150000e+00,3.14150000e+00,4.00000000e+00,-9.10000000e+01,
2.07381500e+06,-1.39354002e-02,-6.45963028e-02,3.21421996e-02,1.25000000e-01,1.25000000e-01,-6.25000000e-02,3.53812027e+01,1.21000000e+02,-8.46250000e+01,-1.74625000e+02,1.61156311e+01,3.14000010e+00,3.14000010e+00,0.00000000e+00,2.00000000e+00,1.11100000e+03,3.96024394e+00,
3.14150000e+00,-3.00000000e+00,4.67844505e+01,1.66542664e+01,3.14150000e+00,3.14150000e+00,1.08220898e-01,3.14150000e+00,3.14150000e+00,4.00000000e+00,-9.10000000e+01,
2.07387500e+06,-2.40070000e-03,1.44739996e-03,2.98686996e-02,4.37500000e-01,3.12500000e-01,0.00000000e+00,3.53767319e+01,1.21000000e+02,-8.46250000e+01,-1.74625000e+02,1.65394859e+01,3.14000010e+00,3.14000010e+00,0.00000000e+00,2.00000000e+00,1.11100000e+03,3.96024394e+00,
3.14150000e+00,-3.00000000e+00,4.67844505e+01,1.64567471e+01,3.14150000e+00,3.14150000e+00,-4.02576998e-02,3.14150000e+00,3.14150000e+00,4.00000000e+00,-9.20000000e+01,
2.07392600e+06,-8.00199981e-04,4.82500007e-04,9.95619968e-03,2.50000000e-01,3.75000000e-01,-1.25000000e-01,3.53856735e+01,1.21000000e+02,-8.46250000e+01,-1.74625000e+02,1.70515766e+01,3.14000010e+00,3.14000010e+00,0.00000000e+00,2.00000000e+00,1.11100000e+03,3.96024394e+00,
3.14150000e+00,-3.00000000e+00,4.67844505e+01,1.65080738e+01,3.14150000e+00,3.14150000e+00,-1.02968002e-02,3.14150000e+00,3.14150000e+00,4.00000000e+00,-9.30000000e+01,
2.07398500e+06,2.25923993e-02,8.26309994e-02,7.85550009e-03,-6.25000000e-02,-1.87500000e-01,-6.25000000e-02,3.53901443e+01,1.21000000e+02,-8.46250000e+01,-1.74625000e+02,1.59477997e+01,3.14000010e+00,3.14000010e+00,0.00000000e+00,2.00000000e+00,1.11100000e+03,3.94731712e+00,
3.14150000e+00,-3.00000000e+00,4.67844505e+01,1.61338291e+01,3.14150000e+00,3.14150000e+00,-2.82755286e-01,3.14150000e+00,3.14150000e+00,4.00000000e+00,-9.20000000e+01,
2.07404400e+06,-1.81099009e-02,2.57820003e-02,-2.70500011e-03,-6.25000000e-02,-3.75000000e-01,0.00000000e+00,3.53856735e+01,1.21000000e+02,-8.46250000e+01,-1.74625000e+02,1.56917810e+01,3.14000010e+00,3.14000010e+00,0.00000000e+00,2.00000000e+00,1.11100000e+03,3.96024394e+00,
3.14150000e+00,-3.00000000e+00,4.67844505e+01,1.69560413e+01,3.14150000e+00,3.14150000e+00,2.83643514e-01,3.14150000e+00,3.14150000e+00,4.00000000e+00,-9.30000000e+01,
2.07409600e+06,-4.96781990e-02,3.64243016e-02,1.43299000e-02,-3.75000000e-01,-3.75000000e-01,6.25000000e-02,3.53812027e+01,1.21000000e+02,-8.46250000e+01,-1.74625000e+02,1.57756968e+01,3.14000010e+00,3.14000010e+00,0.00000000e+00,2.00000000e+00,1.11100000e+03,3.94731712e+00,
3.14150000e+00,-3.00000000e+00,4.67844505e+01,1.64941368e+01,3.14150000e+00,3.14150000e+00,-8.90790969e-02,3.14150000e+00,3.14150000e+00,4.00000000e+00,-9.30000000e+01,
2.07415500e+06,-4.59872000e-02,-4.09566984e-02,2.84205005e-02,-2.50000000e-01,-1.25000000e-01,1.25000000e-01,3.53812027e+01,1.21000000e+02,-8.46250000e+01,-1.74625000e+02,1.61156311e+01,3.14000010e+00,3.14000010e+00,0.00000000e+00,2.00000000e+00,1.11100000e+03,3.96024394e+00,
3.14150000e+00,-3.00000000e+00,4.67844505e+01,1.60169163e+01,3.14150000e+00,3.14150000e+00,-4.12424892e-01,3.14150000e+00,3.14150000e+00,4.00000000e+00,-9.30000000e+01,
2.07420600e+06,-2.78772991e-02,-6.67387992e-02,3.11254002e-02,-1.25000000e-01,6.25000000e-02,1.87500000e-01,3.53856735e+01,1.21000000e+02,-8.46250000e+01,-1.74625000e+02,1.67116108e+01,3.14000010e+00,3.14000010e+00,0.00000000e+00,2.00000000e+00,1.11100000e+03,3.96024394e+00,
3.14150000e+00,-3.00000000e+00,4.67844505e+01,1.65938892e+01,3.14150000e+00,3.14150000e+00,-8.45190044e-03,3.14150000e+00,3.14150000e+00,4.00000000e+00,-9.30000000e+01,
2.07426600e+06,2.53226999e-02,-3.12095005e-02,1.35915997e-02,0.00000000e+00,2.50000000e-01,-6.25000000e-02,3.53856735e+01,1.21000000e+02,-8.46250000e+01,-1.74625000e+02,1.63716545e+01,3.14000010e+00,3.14000010e+00,0.00000000e+00,2.00000000e+00,1.11100000e+03,3.96024394e+00,
3.14150000e+00,-3.00000000e+00,4.67844505e+01,1.67126465e+01,3.14150000e+00,3.14150000e+00,8.40926990e-02,3.14150000e+00,3.14150000e+00,4.00000000e+00,-9.30000000e+01,
2.07432500e+06,3.20518017e-02,-2.36396007e-02,3.72170005e-03,2.50000000e-01,2.50000000e-01,-1.87500000e-01,3.53767319e+01,1.21000000e+02,-8.46250000e+01,-1.74625000e+02,1.65394859e+01,3.14000010e+00,3.14000010e+00,0.00000000e+00,2.00000000e+00,1.11100000e+03,3.94731712e+00,
3.14150000e+00,-3.00000000e+00,4.67844505e+01,1.68136101e+01,3.14150000e+00,3.14150000e+00,1.63660303e-01,3.14150000e+00,3.14150000e+00,4.00000000e+00,-9.30000000e+01,
2.07437700e+06,-2.59623993e-02,6.86338022e-02,1.46752000e-02,3.12500000e-01,1.87500000e-01,-1.25000000e-01,3.53901443e+01,1.21000000e+02,-8.46250000e+01,-1.74625000e+02,1.66276951e+01,3.14000010e+00,3.14000010e+00,0.00000000e+00,2.00000000e+00,1.11100000e+03,3.96024394e+00,
3.14150000e+00,-3.00000000e+00,4.67844505e+01,1.65271778e+01,3.14150000e+00,3.14150000e+00,-2.67369002e-02,3.14150000e+00,3.14150000e+00,4.00000000e+00,-9.20000000e+01,
2.07443600e+06,-2.98072994e-02,4.66191992e-02,1.54330004e-02,1.87500000e-01,0.00000000e+00,-1.25000000e-01,3.53767319e+01,1.21000000e+02,-8.46250000e+01,-1.74625000e+02,1.65394859e+01,3.14000010e+00,3.14000010e+00,0.00000000e+00,2.00000000e+00,1.11100000e+03,3.96024394e+00,
3.14150000e+00,-3.00000000e+00,4.67844505e+01,1.66113987e+01,3.14150000e+00,3.14150000e+00,3.45056988e-02,3.14150000e+00,3.14150000e+00,4.00000000e+00,-9.20000000e+01,
2.07449400e+06,-5.76911010e-02,4.23341990e-02,1.33995004e-02,-1.25000000e-01,1.25000000e-01,0.00000000e+00,3.53856735e+01,1.21000000e+02,-8.46250000e+01,-1.74625000e+02,1.63716545e+01,3.14000010e+00,3.14000010e+00,0.00000000e+00,2.00000000e+00,1.11100000e+03,3.96024394e+00,
3.14150000e+00,-3.00000000e+00,4.67844505e+01,1.68213367e+01,3.14150000e+00,3.14150000e+00,1.77057400e-01,3.14150000e+00,3.14150000e+00,4.00000000e+00,-9.20000000e+01,
2.07454600e+06,-6.66647032e-02,1.17848003e-02,4.11480013e-03,-1.25000000e-01,-1.87500000e-01,1.87500000e-01,3.53812027e+01,1.21000000e+02,-8.46250000e+01,-1.74625000e+02,1.64555702e+01,3.14000010e+00,3.14000010e+00,0.00000000e+00,2.00000000e+00,1.11100000e+03,3.96024394e+00,
3.14150000e+00,-3.00000000e+00,4.67844505e+01,1.69690170e+01,3.14150000e+00,3.14150000e+00,2.43725404e-01,3.14150000e+00,3.14150000e+00,4.00000000e+00,-9.30000000e+01,
2.07460500e+06,-9.12979990e-03,-6.12240005e-03,3.97386998e-02,-5.00000000e-01,1.25000000e-01,2.50000000e-01,3.53856735e+01,1.21000000e+02,-8.46250000e+01,-1.74625000e+02,1.63716545e+01,3.14000010e+00,3.14000010e+00,0.00000000e+00,2.00000000e+00,1.11100000e+03,3.94731712e+00,
3.14150000e+00,-3.00000000e+00,4.67844505e+01,1.67772045e+01,3.14150000e+00,3.14150000e+00,1.19323902e-01,3.14150000e+00,3.14150000e+00,4.00000000e+00,-9.30000000e+01,
2.07465700e+06,-3.36130010e-03,-3.50118987e-02,2.15144008e-02,-1.25000000e-01,-6.25000000e-02,1.87500000e-01,3.53812027e+01,1.21000000e+02,-8.46250000e+01,-1.74625000e+02,1.71354923e+01,3.14000010e+00,3.14000010e+00,0.00000000e+00,2.00000000e+00,1.11100000e+03,3.96024394e+00,
3.14150000e+00,-3.00000000e+00,4.67844505e+01,1.63911266e+01,3.14150000e+00,3.14150000e+00,-1.52377993e-01,3.14150000e+00,3.14150000e+00,4.00000000e+00,-9.20000000e+01,
2.07471600e+06,3.02908998e-02,-5.96164018e-02,5.32360002e-03,3.12500000e-01,0.00000000e+00,0.00000000e+00,3.53856735e+01,1.21000000e+02,-8.46250000e+01,-1.74625000e+02,1.70515766e+01,3.14000010e+00,3.14000010e+00,0.00000000e+00,2.00000000e+00,1.11100000e+03,3.96024394e+00,
3.14150000e+00,-3.00000000e+00,4.67844505e+01,1.62896805e+01,3.14150000e+00,3.14150000e+00,-2.43762299e-01,3.14150000e+00,3.14150000e+00,4.00000000e+00,-9.30000000e+01,
2.07477500e+06,1.73096992e-02,-2.52995994e-02,1.26612000e-02,4.37500000e-01,6.25000000e-02,-2.50000000e-01,3.53856735e+01,1.21000000e+02,-8.46250000e+01,-1.74625000e+02,1.67116108e+01,3.14000010e+00,3.14000010e+00,0.00000000e+00,2.00000000e+00,1.11100000e+03,3.96024394e+00,
3.14150000e+00,-3.00000000e+00,4.67844505e+01,1.66468430e+01,3.14150000e+00,3.14150000e+00,7.29500025e-04,3.14150000e+00,3.14150000e+00,4.00000000e+00,-9.30000000e+01,
2.07482700e+06,-1.63425002e-02,-6.94999995e-04,2.88520008e-02,3.75000000e-01,0.00000000e+00,-1.87500000e-01,3.53812027e+01,1.21000000e+02,-8.46250000e+01,-1.74625000e+02,1.64555702e+01,3.14000010e+00,3.14000010e+00,0.00000000e+00,2.00000000e+00,1.11100000e+03,3.96024394e+00,
3.14150000e+00,-3.00000000e+00,4.67844505e+01,1.65931091e+01,3.14150000e+00,3.14150000e+00,-5.16238995e-02,3.14150000e+00,3.14150000e+00,4.00000000e+00,-9.30000000e+01,
2.07488600e+06,-5.84913008e-02,4.28166986e-02,2.33558007e-02,3.75000000e-01,1.87500000e-01,-1.87500000e-01,3.53767319e+01,1.21000000e+02,-8.46250000e+01,-1.74625000e+02,1.58596144e+01,3.14000010e+00,3.14000010e+00,0.00000000e+00,2.00000000e+00,1.11100000e+03,3.94731712e+00,
3.14150000e+00,-3.00000000e+00,4.67844505e+01,1.61922455e+01,3.14150000e+00,3.14150000e+00,-3.28420788e-01,3.14150000e+00,3.14150000e+00,4.00000000e+00,-9.30000000e+01,
2.07494100e+06,-3.73366997e-02,3.95318009e-02,3.52591984e-02,6.25000000e-02,0.00000000e+00,0.00000000e+00,3.53856735e+01,1.21000000e+02,-8.46250000e+01,-1.74625000e+02,1.70515766e+01,3.14000010e+00,3.14000010e+00,0.00000000e+00,2.00000000e+00,1.11100000e+03,3.94731712e+00,
3.14150000e+00,-3.00000000e+00,4.67844505e+01,1.60473537e+01,3.14150000e+00,3.14150000e+00,-4.16502386e-01,3.14150000e+00,3.14150000e+00,4.00000000e+00,-9.30000000e+01,
2.07499600e+06,-5.04783988e-02,3.69068012e-02,2.42861994e-02,-2.50000000e-01,6.25000000e-02,0.00000000e+00,3.53856735e+01,1.21000000e+02,-8.46250000e+01,-1.74625000e+02,1.67116108e+01,3.14000010e+00,3.14000010e+00,0.00000000e+00,2.00000000e+00,1.11100000e+03,3.94731712e+00,
3.14150000e+00,-3.00000000e+00,4.67844505e+01,1.66541519e+01,3.14150000e+00,3.14150000e+00,2.89194994e-02,3.14150000e+00,3.14150000e+00,4.00000000e+00,-9.50000000e+01,
2.07505600e+06,1.10576004e-02,1.65871996e-02,1.01289004e-02,-4.37500000e-01,6.25000000e-02,3.12500000e-01,3.53767319e+01,1.21000000e+02,-8.46250000e+01,-1.74625000e+02,1.65394859e+01,3.14000010e+00,3.14000010e+00,0.00000000e+00,2.00000000e+00,1.11100000e+03,3.94731712e+00,
3.14150000e+00,-3.00000000e+00,4.67844505e+01,1.64670162e+01,3.14150000e+00,3.14150000e+00,-1.00527197e-01,3.14150000e+00,3.14150000e+00,4.00000000e+00,-9.50000000e+01,
2.07510700e+06,2.82068998e-02,-4.56542000e-02,4.47950000e-03,0.00000000e+00,-6.25000000e-02,0.00000000e+00,3.53812027e+01,1.21000000e+02,-8.46250000e+01,-1.74625000e+02,1.64555702e+01,3.14000010e+00,3.14000010e+00,0.00000000e+00,2.00000000e+00,1.11100000e+03,3.97317076e+00,
3.14150000e+00,-3.00000000e+00,4.67844505e+01,1.66523991e+01,3.14150000e+00,3.14150000e+00,2.86975000e-02,3.14150000e+00,3.14150000e+00,4.00000000e+00,-9.30000000e+01,
2.07516600e+06,-3.36130010e-03,-3.50118987e-02,2.15144008e-02,6.25000000e-02,1.25000000e-01,-1.25000000e-01,3.53767319e+01,1.21000000e+02,-8.46250000e+01,-1.74625000e+02,1.65394859e+01,3.14000010e+00,3.14000010e+00,0.00000000e+00,2.00000000e+00,1.11100000e+03,3.94731712e+00,
3.14150000e+00,-3.00000000e+00,4.67844505e+01,1.68274364e+01,3.14150000e+00,3.14150000e+00,1.45456493e-01,3.14150000e+00,3.14150000e+00,4.00000000e+00,-9.50000000e+01,
2.07522600e+06,3.23099986e-04,-4.99390997e-02,2.44600000e-03,5.62500000e-01,-6.25000000e-02,-2.50000000e-01,3.53767319e+01,1.21000000e+02,-8.46250000e+01,-1.74625000e+02,1.68794403e+01,3.14000010e+00,3.14000010e+00,0.00000000e+00,2.00000000e+00,1.11100000e+03,3.94731712e+00,
3.14150000e+00,-3.00000000e+00,4.67844505e+01,1.65897636e+01,3.14150000e+00,3.14150000e+00,-2.93314997e-02,3.14150000e+00,3.14150000e+00,4.00000000e+00,-9.50000000e+01,
2.07527700e+06,-4.16652001e-02,3.05144992e-02,1.52604003e-02,5.62500000e-01,0.00000000e+00,-2.50000000e-01,3.53856735e+01,1.21000000e+02,-8.46250000e+01,-1.74625000e+02,1.60317154e+01,3.14000010e+00,3.14000010e+00,0.00000000e+00,2.00000000e+00,1.11100000e+03,3.96024394e+00,
3.14150000e+00,-3.00000000e+00,4.67844505e+01,1.64988308e+01,3.14150000e+00,3.14150000e+00,-9.28409025e-02,3.14150000e+00,3.14150000e+00,4.00000000e+00,-9.30000000e+01,
2.07533600e+06,-2.56392993e-02,1.86947007e-02,1.71211995e-02,4.37500000e-01,1.25000000e-01,-1.87500000e-01,3.53812027e+01,1.21000000e+02,-8.46250000e+01,-1.74625000e+02,1.71354923e+01,3.14000010e+00,3.14000010e+00,0.00000000e+00,2.00000000e+00,1.11100000e+03,3.94731712e+00,
3.14150000e+00,-3.00000000e+00,4.67844505e+01,1.66287651e+01,3.14150000e+00,3.14150000e+00,7.52610015e-03,3.14150000e+00,3.14150000e+00,4.00000000e+00,-9.50000000e+01,
2.07539500e+06,-1.71492994e-02,6.22414015e-02,5.64939994e-03,1.87500000e-01,-6.25000000e-02,-6.25000000e-02,3.53812027e+01,1.21000000e+02,-8.46250000e+01,-1.74625000e+02,1.71354923e+01,3.14000010e+00,3.14000010e+00,0.00000000e+00,2.00000000e+00,1.11100000e+03,3.96024394e+00,
3.14150000e+00,-3.00000000e+00,4.67844505e+01,1.67224312e+01,3.14150000e+00,3.14150000e+00,7.24236965e-02,3.14150000e+00,3.14150000e+00,4.00000000e+00,-9.60000000e+01,
2.07544700e+06,-8.81319959e-03,6.39239978e-03,9.02580004e-03,-6.25000000e-02,-6.25000000e-02,0.00000000e+00,3.53856735e+01,1.21000000e+02,-8.46250000e+01,-1.74625000e+02,1.56917810e+01,3.14000010e+00,3.14000010e+00,0.00000000e+00,2.00000000e+00,1.11100000e+03,3.94731712e+00,
3.14150000e+00,-3.00000000e+00,4.67844505e+01,1.63839436e+01,3.14150000e+00,3.14150000e+00,-1.57129899e-01,3.14150000e+00,3.14150000e+00,4.00000000e+00,-9.60000000e+01,
2.07550600e+06,-3.68450000e-03,1.49272000e-02,1.90683994e-02,-1.25000000e-01,-1.25000000e-01,6.25000000e-02,3.53901443e+01,1.21000000e+02,-8.46250000e+01,-1.74625000e+02,1.69676628e+01,3.14000010e+00,3.14000010e+00,0.00000000e+00,2.00000000e+00,1.11100000e+03,3.94731712e+00,
3.14150000e+00,-3.00000000e+00,4.67844505e+01,1.63246078e+01,3.14150000e+00,3.14150000e+00,-1.95324793e-01,3.14150000e+00,3.14150000e+00,4.00000000e+00,-9.70000000e+01,
2.07555800e+06,-2.91610993e-02,-5.32590002e-02,2.03251000e-02,-1.87500000e-01,6.25000000e-02,-6.25000000e-02,3.53856735e+01,1.21000000e+02,-8.46250000e+01,-1.74625000e+02,1.67116108e+01,3.14000010e+00,3.14000010e+00,0.00000000e+00,2.00000000e+00,1.11100000e+03,3.96024394e+00,
3.14150000e+00,-3.00000000e+00,4.67844505e+01,1.63747253e+01,3.14150000e+00,3.14150000e+00,-1.34821296e-01,3.14150000e+00,3.14150000e+00,8.00000000e+00,-9.70000000e+01,
2.07561700e+06,-6.40599988e-03,-5.75090013e-02,1.23159997e-02,1.87500000e-01,-1.87500000e-01,-6.25000000e-02,3.53856735e+01,1.21000000e+02,-8.46250000e+01,-1.74625000e+02,1.63716545e+01,3.14000010e+00,3.14000010e+00,0.00000000e+00,2.00000000e+00,1.11100000e+03,3.94731712e+00,
3.14150000e+00,-3.00000000e+00,4.67844505e+01,1.66851139e+01,3.14150000e+00,3.14150000e+00,7.90254995e-02,3.14150000e+00,3.14150000e+00,4.00000000e+00,-9.60000000e+01,
2.07567700e+06,-2.61163991e-02,-3.07618994e-02,2.95234993e-02,3.75000000e-01,1.25000000e-01,-2.50000000e-01,3.53856735e+01,1.21000000e+02,-8.46250000e+01,-1.74625000e+02,1.63716545e+01,3.14000010e+00,3.14000010e+00,0.00000000e+00,2.00000000e+00,1.11100000e+03,3.96024394e+00,
3.14150000e+00,-3.00000000e+00,4.67844505e+01,1.63061028e+01,3.14150000e+00,3.14150000e+00,-1.96654096e-01,3.14150000e+00,3.14150000e+00,4.00000000e+00,-9.60000000e+01,
2.07572800e+06,-1.60039996e-03,9.65000014e-04,1.99124999e-02,3.12500000e-01,1.25000000e-01,-2.50000000e-01,3.53812027e+01,1.21000000e+02,-8.46250000e+01,-1.74625000e+02,1.61156311e+01,3.14000010e+00,3.14000010e+00,0.00000000e+00,2.00000000e+00,1.11100000e+03,3.96024394e+00,
3.14150000e+00,-3.00000000e+00,4.67844505e+01,1.63970585e+01,3.14150000e+00,3.14150000e+00,-1.28502801e-01,3.14150000e+00,3.14150000e+00,4.00000000e+00,-9.50000000e+01,
2.07578700e+06,-1.97103992e-02,2.67469995e-02,1.72074996e-02,3.75000000e-01,1.87500000e-01,-6.25000000e-02,3.53901443e+01,1.21000000e+02,-8.46250000e+01,-1.74625000e+02,1.66276951e+01,3.14000010e+00,3.14000010e+00,0.00000000e+00,2.00000000e+00,1.11100000e+03,3.94731712e+00,
3.14150000e+00,-3.00000000e+00,4.67844505e+01,1.64222889e+01,3.14150000e+00,3.14150000e+00,-1.05524302e-01,3.14150000e+00,3.14150000e+00,4.00000000e+00,-9.50000000e+01,
2.07585700e+06,-2.69230995e-02,3.21744010e-02,6.32089982e-03,0.00000000e+00,0.00000000e+00,-6.25000000e-02,3.53812027e+01,1.21000000e+02,-8.46250000e+01,-1.74625000e+02,1.57756968e+01,3.14000010e+00,3.14000010e+00,0.00000000e+00,2.00000000e+00,1.11100000e+03,3.94731712e+00,
3.14150000e+00,-3.00000000e+00,4.67844505e+01,1.66054974e+01,3.14150000e+00,3.14150000e+00,6.91315010e-02,3.14150000e+00,3.14150000e+00,4.00000000e+00,-9.60000000e+01,
2.07591700e+06,-1.68261006e-02,1.23023000e-02,8.09540041e-03,0.00000000e+00,6.25000000e-02,0.00000000e+00,3.53767319e+01,1.21000000e+02,-8.46250000e+01,-1.74625000e+02,1.65394859e+01,3.14000010e+00,3.14000010e+00,0.00000000e+00,2.00000000e+00,1.11100000e+03,3.96024394e+00,
3.14150000e+00,-3.00000000e+00,4.67844505e+01,1.65173798e+01,3.14150000e+00,3.14150000e+00,2.13102009e-02,3.14150000e+00,3.14150000e+00,4.00000000e+00,-9.60000000e+01,
2.07597600e+06,-2.65999995e-02,-1.77647006e-02,8.76689982e-03,1.25000000e-01,-1.25000000e-01,-6.25000000e-02,3.53767319e+01,1.21000000e+02,-8.46250000e+01,-1.74625000e+02,1.65394859e+01,3.14000010e+00,3.14000010e+00,0.00000000e+00,2.00000000e+00,1.11100000e+03,3.94731712e+00,
3.14150000e+00,-3.00000000e+00,4.67844505e+01,1.67493038e+01,3.14150000e+00,3.14150000e+00,1.88145995e-01,3.14150000e+00,3.14150000e+00,4.00000000e+00,-9.50000000e+01,
2.07602800e+06,-2.32321005e-02,-4.52066995e-02,2.04114001e-02,1.25000000e-01,-1.87500000e-01,-6.25000000e-02,3.53767319e+01,1.21000000e+02,-8.46250000e+01,-1.74625000e+02,1.58596144e+01,3.14000010e+00,3.14000010e+00,0.00000000e+00,2.00000000e+00,1.11100000e+03,3.96024394e+00,
3.14150000e+00,-3.00000000e+00,4.67844505e+01,1.68528767e+01,3.14150000e+00,3.14150000e+00,2.30567604e-01,3.14150000e+00,3.14150000e+00,4.00000000e+00,-9.60000000e+01,
2.07608700e+06,-1.93872005e-02,-2.31921002e-02,1.96535997e-02,1.87500000e-01,1.25000000e-01,6.25000000e-02,3.53812027e+01,1.21000000e+02,-8.46250000e+01,-1.74625000e+02,1.67955246e+01,3.14000010e+00,3.14000010e+00,0.00000000e+00,2.00000000e+00,1.11100000e+03,3.96024394e+00,
3.14150000e+00,-3.00000000e+00,4.67844505e+01,1.64884529e+01,3.14150000e+00,3.14150000e+00,2.74350005e-03,3.14150000e+00,3.14150000e+00,4.00000000e+00,-9.60000000e+01,
2.07614200e+06,1.95541997e-02,-2.31999997e-03,3.18159014e-02,1.87500000e-01,6.25000000e-02,-1.25000000e-01,3.53856735e+01,1.21000000e+02,-8.46250000e+01,-1.74625000e+02,1.63716545e+01,3.14000010e+00,3.14000010e+00,0.00000000e+00,2.00000000e+00,1.11100000e+03,3.96024394e+00,
3.14150000e+00,-3.00000000e+00,4.67844505e+01,1.65855217e+01,3.14150000e+00,3.14150000e+00,7.91445971e-02,3.14150000e+00,3.14150000e+00,4.00000000e+00,-9.60000000e+01,
2.07619800e+06,-1.63425002e-02,-6.94999995e-04,2.88520008e-02,1.25000000e-01,1.25000000e-01,-1.25000000e-01,3.53901443e+01,1.21000000e+02,-8.46250000e+01,-1.74625000e+02,1.69676628e+01,3.14000010e+00,3.14000010e+00,0.00000000e+00,2.00000000e+00,1.11100000e+03,3.94731712e+00,
3.14150000e+00,-3.00000000e+00,4.67844505e+01,1.66042862e+01,3.14150000e+00,3.14150000e+00,8.08895975e-02,3.14150000e+00,3.14150000e+00,4.00000000e+00,-9.70000000e+01,
2.07625700e+06,3.52829997e-03,9.49980039e-03,2.99551003e-02,3.12500000e-01,1.25000000e-01,-6.25000000e-02,3.53767319e+01,1.21000000e+02,-8.46250000e+01,-1.74625000e+02,1.68794403e+01,3.14000010e+00,3.14000010e+00,0.00000000e+00,2.00000000e+00,1.11100000e+03,3.94731712e+00,
3.14150000e+00,-3.00000000e+00,4.67844505e+01,1.61861172e+01,3.14150000e+00,3.14150000e+00,-2.20938802e-01,3.14150000e+00,3.14150000e+00,4.00000000e+00,-9.60000000e+01,
2.07630800e+06,-8.65270011e-03,4.33342010e-02,2.73364000e-02,1.87500000e-01,-6.25000000e-02,-6.25000000e-02,3.53856735e+01,1.21000000e+02,-8.46250000e+01,-1.74625000e+02,1.56917810e+01,3.14000010e+00,3.14000010e+00,0.00000000e+00,2.00000000e+00,1.11100000e+03,3.96024394e+00,
3.14150000e+00,-3.00000000e+00,4.67844505e+01,1.62728500e+01,3.14150000e+00,3.14150000e+00,-1.39620095e-01,3.14150000e+00,3.14150000e+00,4.00000000e+00,-9.60000000e+01,
2.07636800e+06,-3.87809984e-02,1.60696991e-02,6.14820002e-03,-6.25000000e-02,-1.25000000e-01,-1.25000000e-01,3.53901443e+01,1.21000000e+02,-8.46250000e+01,-1.74625000e+02,1.69676628e+01,3.14000010e+00,3.14000010e+00,0.00000000e+00,2.00000000e+00,1.11100000e+03,3.94731712e+00,
3.14150000e+00,-3.00000000e+00,4.67844505e+01,1.65647240e+01,3.14150000e+00,3.14150000e+00,1.11784600e-01,3.14150000e+00,3.14150000e+00,4.00000000e+00,-9.60000000e+01,
2.07642700e+06,-2.01875009e-02,-2.27096006e-02,2.96097994e-02,6.25000000e-02,0.00000000e+00,-6.25000000e-02,3.53767319e+01,1.21000000e+02,-8.46250000e+01,-1.74625000e+02,1.58596144e+01,3.14000010e+00,3.14000010e+00,0.00000000e+00,2.00000000e+00,1.11100000e+03,3.96024394e+00,
3.14150000e+00,-3.00000000e+00,4.67844505e+01,1.65328903e+01,3.14150000e+00,3.14150000e+00,9.18394029e-02,3.14150000e+00,3.14150000e+00,4.00000000e+00,-9.60000000e+01,
2.07647900e+06,-2.53161993e-02,-3.12444009e-02,1.95672996e-02,-6.25000000e-02,1.25000000e-01,0.00000000e+00,3.53856735e+01,1.21000000e+02,-8.46250000e+01,-1.74625000e+02,1.70515766e+01,3.14000010e+00,3.14000010e+00,0.00000000e+00,2.00000000e+00,1.11100000e+03,3.96024394e+00,
3.14150000e+00,-3.00000000e+00,4.67844505e+01,1.67241669e+01,3.14150000e+00,3.14150000e+00,1.83194906e-01,3.14150000e+00,3.14150000e+00,4.00000000e+00,-9.50000000e+01,
2.07653800e+06,-8.48999992e-03,-4.35466990e-02,1.14719002e-02,-6.25000000e-02,0.00000000e+00,6.25000000e-02,3.53812027e+01,1.21000000e+02,-8.46250000e+01,-1.74625000e+02,1.64555702e+01,3.14000010e+00,3.14000010e+00,0.00000000e+00,2.00000000e+00,1.11100000e+03,3.94731712e+00,
3.14150000e+00,-3.00000000e+00,4.67844505e+01,1.62395840e+01,3.14150000e+00,3.14150000e+00,-1.64263800e-01,3.14150000e+00,3.14150000e+00,4.00000000e+00,-9.50000000e+01,
2.07659700e+06,6.41250005e-03,-4.94490005e-03,2.08429005e-02,1.87500000e-01,0.00000000e+00,-1.87500000e-01,3.53901443e+01,1.21000000e+02,-8.46250000e+01,-1.74625000e+02,1.66276951e+01,3.14000010e+00,3.14000010e+00,0.00000000e+00,2.00000000e+00,1.11100000e+03,3.96024394e+00,
3.14150000e+00,-3.00000000e+00,4.67844505e+01,1.63092175e+01,3.14150000e+00,3.14150000e+00,-1.11638598e-01,3.14150000e+00,3.14150000e+00,4.00000000e+00,-9.60000000e+01,
2.07664800e+06,-1.16974004e-02,2.08371002e-02,1.81380007e-02,0.00000000e+00,1.25000000e-01,-6.25000000e-02,3.53856735e+01,1.21000000e+02,-8.46250000e+01,-1.74625000e+02,1.63716545e+01,3.14000010e+00,3.14000010e+00,0.00000000e+00,2.00000000e+00,1.11100000e+03,3.96024394e+00,
3.14150000e+00,-3.00000000e+00,4.67844505e+01,1.63794365e+01,3.14150000e+00,3.14150000e+00,-5.07715009e-02,3.14150000e+00,3.14150000e+00,4.00000000e+00,-9.50000000e+01,
2.07670700e+06,-3.68450000e-03,1.49272000e-02,1.90683994e-02,2.50000000e-01,-1.25000000e-01,-6.25000000e-02,3.53812027e+01,1.21000000e+02,-8.46250000e+01,-1.74625000e+02,1.57756968e+01,3.14000010e+00,3.14000010e+00,0.00000000e+00,2.00000000e+00,1.11100000e+03,3.94731712e+00,
3.14150000e+00,-3.00000000e+00,4.67844505e+01,1.65518017e+01,3.14150000e+00,3.14150000e+00,4.74449992e-02,3.14150000e+00,3.14150000e+00,4.00000000e+00,-9.30000000e+01,
2.07675900e+06,-1.68261006e-02,1.23023000e-02,8.09540041e-03,1.25000000e-01,0.00000000e+00,-6.25000000e-02,3.53856735e+01,1.21000000e+02,-8.46250000e+01,-1.74625000e+02,1.63716545e+01,3.14000010e+00,3.14000010e+00,0.00000000e+00,2.00000000e+00,1.11100000e+03,3.96024394e+00,
3.14150000e+00,-3.00000000e+00,4.67844505e+01,1.63654785e+01,3.14150000e+00,3.14150000e+00,-8.87944028e-02,3.14150000e+00,3.14150000e+00,4.00000000e+00,-9.50000000e+01,
2.07681800e+06,-2.82003991e-02,-1.67996995e-02,2.86794007e-02,-6.25000000e-02,2.50000000e-01,0.00000000e+00,3.53856735e+01,1.21000000e+02,-8.46250000e+01,-1.74625000e+02,1.67116108e+01,3.14000010e+00,3.14000010e+00,0.00000000e+00,2.00000000e+00,1.11100000e+03,3.96024394e+00,
3.14150000e+00,-3.00000000e+00,4.67844505e+01,1.61436024e+01,3.14150000e+00,3.14150000e+00,-2.44183898e-01,3.14150000e+00,3.14150000e+00,4.00000000e+00,-9.50000000e+01,
2.07687800e+06,-3.23684998e-02,1.11248000e-02,2.69911997e-02,1.87500000e-01,-6.25000000e-02,-6.25000000e-02,3.53946152e+01,1.21000000e+02,-8.46250000e+01,-1.74625000e+02,1.58638849e+01,3.14000010e+00,3.14000010e+00,0.00000000e+00,2.00000000e+00,1.11100000e+03,3.96024394e+00,
3.14150000e+00,-3.00000000e+00,4.67844505e+01,1.62965546e+01,3.14150000e+00,3.14150000e+00,-1.21068403e-01,3.14150000e+00,3.14150000e+00,4.00000000e+00,-9.60000000e+01,
2.07692900e+06,2.70834994e-02,4.76740021e-03,1.19896997e-02,-1.25000000e-01,1.87500000e-01,6.25000000e-02,3.53946152e+01,1.21000000e+02,-8.46250000e+01,-1.74625000e+02,1.62038269e+01,3.14000010e+00,3.14000010e+00,0.00000000e+00,2.00000000e+00,1.11100000e+03,3.97317076e+00,
3.14150000e+00,-3.00000000e+00,4.67844505e+01,1.63046494e+01,3.14150000e+00,3.14150000e+00,-1.19247898e-01,3.14150000e+00,3.14150000e+00,4.00000000e+00,-9.50000000e+01,
2.07698800e+06,4.32850001e-03,9.01729986e-03,1.99988000e-02,1.25000000e-01,1.25000000e-01,6.25000000e-02,3.53767319e+01,1.21000000e+02,-8.46250000e+01,-1.74625000e+02,1.65394859e+01,3.14000010e+00,3.14000010e+00,0.00000000e+00,2.00000000e+00,1.11100000e+03,3.96024394e+00,
3.14150000e+00,-3.00000000e+00,4.67844505e+01,1.60925465e+01,3.14150000e+00,3.14150000e+00,-2.80967504e-01,3.14150000e+00,3.14150000e+00,4.00000000e+00,-9.60000000e+01,
2.07704700e+06,2.62832996e-02,5.24989981e-03,2.19459999e-02,1.25000000e-01,1.25000000e-01,-1.87500000e-01,3.53812027e+01,1.21000000e+02,-8.46250000e+01,-1.74625000e+02,1.67955246e+01,3.14000010e+00,3.14000010e+00,0.00000000e+00,2.00000000e+00,1.11100000e+03,3.96024394e+00,
3.14150000e+00,-3.00000000e+00,4.67844505e+01,1.62571754e+01,3.14150000e+00,3.14150000e+00,-1.75706506e-01,3.14150000e+00,3.14150000e+00,4.00000000e+00,-9.50000000e+01,
2.07709900e+06,-4.75875996e-02,-3.99917997e-02,4.83328998e-02,6.25000000e-02,-1.25000000e-01,-1.25000000e-01,3.53946152e+01,1.21000000e+02,-8.46250000e+01,-1.74625000e+02,1.62038269e+01,3.14000010e+00,3.14000010e+00,0.00000000e+00,2.00000000e+00,1.11100000e+03,3.94731712e+00,
3.14150000e+00,-3.00000000e+00,4.67844505e+01,1.64671917e+01,3.14150000e+00,3.14150000e+00,-1.62441991e-02,3.14150000e+00,3.14150000e+00,4.00000000e+00,-9.50000000e+01,
2.07715800e+06,1.31417001e-02,2.62490008e-03,1.09730000e-02,3.12500000e-01,1.25000000e-01,-1.25000000e-01,3.53812027e+01,1.21000000e+02,-8.46250000e+01,-1.74625000e+02,1.61156311e+01,3.14000010e+00,3.14000010e+00,0.00000000e+00,2.00000000e+00,1.11100000e+03,3.94731712e+00,
3.14150000e+00,-3.00000000e+00,4.67844505e+01,1.60939159e+01,3.14150000e+00,3.14150000e+00,-2.74844795e-01,3.14150000e+00,3.14150000e+00,4.00000000e+00,-9.60000000e+01,
2.07721000e+06,-2.27550995e-02,4.24990011e-03,8.00910033e-03,6.25000000e-02,-6.25000000e-02,1.25000000e-01,3.53901443e+01,1.21000000e+02,-8.46250000e+01,-1.74625000e+02,1.62877388e+01,3.14000010e+00,3.14000010e+00,0.00000000e+00,2.00000000e+00,1.11100000e+03,3.96024394e+00,
3.14150000e+00,-3.00000000e+00,4.67844505e+01,1.62165318e+01,3.14150000e+00,3.14150000e+00,-1.67619005e-01,3.14150000e+00,3.14150000e+00,4.00000000e+00,-9.60000000e+01,
2.07726900e+06,-2.82003991e-02,-1.67996995e-02,2.86794007e-02,1.87500000e-01,1.87500000e-01,6.25000000e-02,3.53946152e+01,1.21000000e+02,-8.46250000e+01,-1.74625000e+02,1.62038269e+01,3.14000010e+00,3.14000010e+00,0.00000000e+00,2.00000000e+00,1.11100000e+03,3.96024394e+00,
3.14150000e+00,-3.00000000e+00,4.67844505e+01,1.65339241e+01,3.14150000e+00,3.14150000e+00,5.97327985e-02,3.14150000e+00,3.14150000e+00,4.00000000e+00,-9.50000000e+01,
2.07732800e+06,1.98708009e-02,1.01947999e-02,1.10300002e-03,1.87500000e-01,6.25000000e-02,1.87500000e-01,3.53812027e+01,1.21000000e+02,-8.46250000e+01,-1.74625000e+02,1.61156311e+01,3.14000010e+00,3.14000010e+00,0.00000000e+00,2.00000000e+00,1.11100000e+03,3.96024394e+00,
3.14150000e+00,-3.00000000e+00,4.67844505e+01,1.66391773e+01,3.14150000e+00,3.14150000e+00,1.43514305e-01,3.14150000e+00,3.14150000e+00,4.00000000e+00,-9.60000000e+01,
2.07738000e+06,-8.00199981e-04,4.82500007e-04,9.95619968e-03,-6.25000000e-02,1.25000000e-01,6.25000000e-02,3.54035568e+01,1.21000000e+02,-8.46250000e+01,-1.74625000e+02,1.63759575e+01,3.14000010e+00,3.14000010e+00,0.00000000e+00,2.00000000e+00,1.11100000e+03,3.97317076e+00,
3.14150000e+00,-3.00000000e+00,4.67844505e+01,1.63069248e+01,3.14150000e+00,3.14150000e+00,-9.34242010e-02,3.14150000e+00,3.14150000e+00,4.00000000e+00,-9.50000000e+01,
2.07743900e+06,1.52257001e-02,-1.13372998e-02,1.18171005e-02,1.25000000e-01,-6.25000000e-02,6.25000000e-02,3.53856735e+01,1.21000000e+02,-8.46250000e+01,-1.74625000e+02,1.63716545e+01,3.14000010e+00,3.14000010e+00,0.00000000e+00,2.00000000e+00,1.11100000e+03,3.94731712e+00,
3.14150000e+00,-3.00000000e+00,4.67844505e+01,1.63679695e+01,3.14150000e+00,3.14150000e+00,-4.67275009e-02,3.14150000e+00,3.14150000e+00,4.00000000e+00,-9.50000000e+01,
2.07749700e+06,-3.07679996e-02,1.01597998e-02,7.07869977e-03,1.25000000e-01,-1.87500000e-01,1.25000000e-01,3.53901443e+01,1.21000000e+02,-8.46250000e+01,-1.74625000e+02,1.62877388e+01,3.14000010e+00,3.14000010e+00,0.00000000e+00,2.00000000e+00,1.11100000e+03,3.94731712e+00,
3.14150000e+00,-3.00000000e+00,4.67844505e+01,1.63270454e+01,3.14150000e+00,3.14150000e+00,-8.51645023e-02,3.14150000e+00,3.14150000e+00,4.00000000e+00,-9.30000000e+01,
2.07754900e+06,-3.62134017e-02,-1.08898003e-02,2.77490001e-02,6.25000000e-02,0.00000000e+00,0.00000000e+00,3.53856735e+01,1.21000000e+02,-8.46250000e+01,-1.74625000e+02,1.67116108e+01,3.14000010e+00,3.14000010e+00,0.00000000e+00,2.00000000e+00,1.11100000e+03,3.94731712e+00,
3.14150000e+00,-3.00000000e+00,4.67844505e+01,1.66249313e+01,3.14150000e+00,3.14150000e+00,1.06893897e-01,3.14150000e+00,3.14150000e+00,4.00000000e+00,-9.50000000e+01,
2.07760900e+06,-1.47420997e-02,-1.65999995e-03,8.93949997e-03,0.00000000e+00,1.87500000e-01,6.25000000e-02,3.53901443e+01,1.21000000e+02,-8.46250000e+01,-1.74625000e+02,1.56078653e+01,3.14000010e+00,3.14000010e+00,0.00000000e+00,2.00000000e+00,1.11100000e+03,3.94731712e+00,
3.14150000e+00,-3.00000000e+00,4.67844505e+01,1.64114208e+01,3.14150000e+00,3.14150000e+00,-4.81985994e-02,3.14150000e+00,3.14150000e+00,4.00000000e+00,-9.70000000e+01,
2.07766000e+06,-2.86839996e-02,-3.80240008e-03,7.92280026e-03,6.25000000e-02,3.12500000e-01,0.00000000e+00,3.53812027e+01,1.21000000e+02,-8.46250000e+01,-1.74625000e+02,1.71354923e+01,3.14000010e+00,3.14000010e+00,0.00000000e+00,2.00000000e+00,1.11100000e+03,3.96024394e+00,
3.14150000e+00,-3.00000000e+00,4.67844505e+01,1.61086597e+01,3.14150000e+00,3.14150000e+00,-2.66625106e-01,3.14150000e+00,3.14150000e+00,4.00000000e+00,-9.60000000e+01,
2.07771900e+06,9.29680001e-03,-1.93897001e-02,1.17308004e-02,1.25000000e-01,1.87500000e-01,-6.25000000e-02,3.53856735e+01,1.21000000e+02,-8.46250000e+01,-1.74625000e+02,1.67116108e+01,3.14000010e+00,3.14000010e+00,0.00000000e+00,2.00000000e+00,1.11100000e+03,3.94731712e+00,
3.14150000e+00,-3.00000000e+00,4.67844505e+01,1.67660809e+01,3.14150000e+00,3.14150000e+00,1.92360207e-01,3.14150000e+00,3.14150000e+00,4.00000000e+00,-9.70000000e+01,
2.07777900e+06,-1.53818997e-02,3.57642993e-02,3.72062996e-02,6.25000000e-02,-1.25000000e-01,-1.25000000e-01,3.53856735e+01,1.21000000e+02,-8.46250000e+01,-1.74625000e+02,1.67116108e+01,3.14000010e+00,3.14000010e+00,0.00000000e+00,2.00000000e+00,1.11100000e+03,3.94731712e+00,
3.14150000e+00,-3.00000000e+00,4.67844505e+01,1.62692413e+01,3.14150000e+00,3.14150000e+00,-1.64591104e-01,3.14150000e+00,3.14150000e+00,4.00000000e+00,-9.90000000e+01,
2.07783000e+06,-2.40070000e-03,1.44739996e-03,2.98686996e-02,0.00000000e+00,-6.25000000e-02,-6.25000000e-02,3.53901443e+01,1.21000000e+02,-8.46250000e+01,-1.74625000e+02,1.66276951e+01,3.14000010e+00,3.14000010e+00,0.00000000e+00,2.00000000e+00,1.11100000e+03,3.96024394e+00,
3.14150000e+00,-3.00000000e+00,4.67844505e+01,1.66129913e+01,3.14150000e+00,3.14150000e+00,7.29413033e-02,3.14150000e+00,3.14150000e+00,4.00000000e+00,-9.90000000e+01,
2.07788900e+06,-1.16974004e-02,2.08371002e-02,1.81380007e-02,6.25000000e-02,-1.87500000e-01,1.25000000e-01,3.53856735e+01,1.21000000e+02,-8.46250000e+01,-1.74625000e+02,1.63716545e+01,3.14000010e+00,3.14000010e+00,0.00000000e+00,2.00000000e+00,1.11100000e+03,3.94731712e+00,
3.14150000e+00,-3.00000000e+00,4.67844505e+01,1.65028648e+01,3.14150000e+00,3.14150000e+00,3.98880010e-03,3.14150000e+00,3.14150000e+00,4.00000000e+00,-1.00000000e+02,
2.07794800e+06,-8.00199981e-04,4.82500007e-04,9.95619968e-03,-1.25000000e-01,-6.25000000e-02,1.25000000e-01,3.53901443e+01,1.21000000e+02,-8.46250000e+01,-1.74625000e+02,1.69676628e+01,3.14000010e+00,3.14000010e+00,0.00000000e+00,2.00000000e+00,1.11100000e+03,3.94731712e+00,
3.14150000e+00,-3.00000000e+00,4.67844505e+01,1.62802448e+01,3.14150000e+00,3.14150000e+00,-1.46718502e-01,3.14150000e+00,3.14150000e+00,4.00000000e+00,-9.80000000e+01,
2.07800000e+06,-1.37748998e-02,-2.76545007e-02,5.04527017e-02,1.25000000e-01,0.00000000e+00,6.25000000e-02,3.53812027e+01,1.21000000e+02,-8.46250000e+01,-1.74625000e+02,1.64555702e+01,3.14000010e+00,3.14000010e+00,0.00000000e+00,2.00000000e+00,1.11100000e+03,3.94731712e+00,
3.14150000e+00,-3.00000000e+00,4.67844505e+01,1.66935349e+01,3.14150000e+00,3.14150000e+00,1.40178800e-01,3.14150000e+00,3.14150000e+00,4.00000000e+00,-9.80000000e+01,
2.07805900e+06,-2.35552993e-02,4.73240018e-03,1.79653000e-02,6.25000000e-02,0.00000000e+00,-1.25000000e-01,3.53856735e+01,1.21000000e+02,-8.46250000e+01,-1.74625000e+02,1.63716545e+01,3.14000010e+00,3.14000010e+00,0.00000000e+00,2.00000000e+00,1.11100000e+03,3.94731712e+00,
3.14150000e+00,-3.00000000e+00,4.67844505e+01,1.66158752e+01,3.14150000e+00,3.14150000e+00,1.10426597e-01,3.14150000e+00,3.14150000e+00,4.00000000e+00,-9.90000000e+01,
2.07811100e+06,-3.84490006e-03,-2.20145993e-02,7.57800008e-04,6.25000000e-02,6.25000000e-02,-6.25000000e-02,3.53812027e+01,1.21000000e+02,-8.46250000e+01,-1.74625000e+02,1.64555702e+01,3.14000010e+00,3.14000010e+00,0.00000000e+00,2.00000000e+00,1.11100000e+03,3.97317076e+00,
3.14150000e+00,-3.00000000e+00,4.67844505e+01,1.66723976e+01,3.14150000e+00,3.14150000e+00,1.29782498e-01,3.14150000e+00,3.14150000e+00,4.00000000e+00,-9.90000000e+01,
2.07817000e+06,-8.00199981e-04,4.82500007e-04,9.95619968e-03,1.25000000e-01,-6.25000000e-02,6.25000000e-02,3.53856735e+01,1.21000000e+02,-8.46250000e+01,-1.74625000e+02,1.63716545e+01,3.14000010e+00,3.14000010e+00,0.00000000e+00,2.00000000e+00,1.11100000e+03,3.96024394e+00,
3.14150000e+00,-3.00000000e+00,4.67844505e+01,1.69295731e+01,3.14150000e+00,3.14150000e+00,3.12308490e-01,3.14150000e+00,3.14150000e+00,4.00000000e+00,-9.80000000e+01,
2.07823000e+06,7.21269986e-03,-5.42740012e-03,1.08866999e-02,1.25000000e-01,6.25000000e-02,-1.87500000e-01,3.53856735e+01,1.21000000e+02,-8.46250000e+01,-1.74625000e+02,1.70515766e+01,3.14000010e+00,3.14000010e+00,0.00000000e+00,2.00000000e+00,1.11100000e+03,3.94731712e+00,
3.14150000e+00,-3.00000000e+00,4.67844505e+01,1.67031403e+01,3.14150000e+00,3.14150000e+00,1.58141196e-01,3.14150000e+00,3.14150000e+00,4.00000000e+00,-9.70000000e+01,
2.07828100e+06,-2.51557007e-02,5.69739984e-03,3.78778018e-02,6.25000000e-02,-6.25000000e-02,-1.25000000e-01,3.53901443e+01,1.21000000e+02,-8.46250000e+01,-1.74625000e+02,1.69676628e+01,3.14000010e+00,3.14000010e+00,0.00000000e+00,2.00000000e+00,1.11100000e+03,3.96024394e+00,
3.14150000e+00,-3.00000000e+00,4.67844505e+01,1.63867149e+01,3.14150000e+00,3.14150000e+00,-5.71212992e-02,3.14150000e+00,3.14150000e+00,4.00000000e+00,-9.70000000e+01,
2.07834000e+06,2.11545993e-02,-3.28500010e-03,1.19033996e-02,-6.25000000e-02,-6.25000000e-02,-6.25000000e-02,3.53946152e+01,1.21000000e+02,-8.46250000e+01,-1.74625000e+02,1.62038269e+01,3.14000010e+00,3.14000010e+00,0.00000000e+00,2.00000000e+00,1.11100000e+03,3.94731712e+00,
3.14150000e+00,-3.00000000e+00,4.67844505e+01,1.61786880e+01,3.14150000e+00,3.14150000e+00,-2.19699204e-01,3.14150000e+00,3.14150000e+00,4.00000000e+00,-9.50000000e+01,
2.07839900e+06,-1.04136001e-02,7.35729979e-03,2.89383009e-02,-1.87500000e-01,2.50000000e-01,-6.25000000e-02,3.53856735e+01,1.21000000e+02,-8.46250000e+01,-1.74625000e+02,1.63716545e+01,3.14000010e+00,3.14000010e+00,0.00000000e+00,2.00000000e+00,1.11100000e+03,3.96024394e+00,
3.14150000e+00,-3.00000000e+00,4.67844505e+01,1.66481419e+01,3.14150000e+00,3.14150000e+00,1.14687897e-01,3.14150000e+00,3.14150000e+00,4.00000000e+00,-9.60000000e+01,
2.07845100e+06,-2.38719005e-02,-7.78240012e-03,4.86782007e-02,1.25000000e-01,0.00000000e+00,-1.25000000e-01,3.53946152e+01,1.21000000e+02,-8.46250000e+01,-1.74625000e+02,1.68837509e+01,3.14000010e+00,3.14000010e+00,0.00000000e+00,2.00000000e+00,1.11100000e+03,3.94731712e+00,
3.14150000e+00,-3.00000000e+00,4.67844505e+01,1.64550781e+01,3.14150000e+00,3.14150000e+00,-7.17579992e-03,3.14150000e+00,3.14150000e+00,4.00000000e+00,-9.60000000e+01,
2.07851000e+06,1.44420005e-03,2.34619994e-02,2.91108992e-02,1.25000000e-01,1.25000000e-01,-1.25000000e-01,3.53856735e+01,1.21000000e+02,-8.46250000e+01,-1.74625000e+02,1.63716545e+01,3.14000010e+00,3.14000010e+00,0.00000000e+00,2.00000000e+00,1.11100000e+03,3.94731712e+00,
3.14150000e+00,-3.00000000e+00,4.67844505e+01,1.64930477e+01,3.14150000e+00,3.14150000e+00,-6.12029992e-03,3.14150000e+00,3.14150000e+00,4.00000000e+00,-9.50000000e+01,
2.07856100e+06,-1.76263005e-02,1.27847996e-02,1.80516001e-02,1.25000000e-01,0.00000000e+00,-1.87500000e-01,3.53856735e+01,1.21000000e+02,-8.46250000e+01,-1.74625000e+02,1.70515766e+01,3.14000010e+00,3.14000010e+00,0.00000000e+00,2.00000000e+00,1.11100000e+03,3.96024394e+00,
3.14150000e+00,-3.00000000e+00,4.67844505e+01,1.62045879e+01,3.14150000e+00,3.14150000e+00,-2.09486499e-01,3.14150000e+00,3.14150000e+00,4.00000000e+00,-9.30000000e+01,
2.07862100e+06,1.44255003e-02,-1.08548002e-02,2.17732992e-02,6.25000000e-02,-1.25000000e-01,-6.25000000e-02,3.53812027e+01,1.21000000e+02,-8.46250000e+01,-1.74625000e+02,1.67955246e+01,3.14000010e+00,3.14000010e+00,0.00000000e+00,2.00000000e+00,1.11100000e+03,3.94731712e+00,
3.14150000e+00,-3.00000000e+00,4.67844505e+01,1.60945244e+01,3.14150000e+00,3.14150000e+00,-2.89936990e-01,3.14150000e+00,3.14150000e+00,4.00000000e+00,-9.20000000e+01,
2.07868000e+06,-1.98708009e-02,-1.01947999e-02,-1.10300002e-03,-6.25000000e-02,-1.87500000e-01,0.00000000e+00,3.53812027e+01,1.21000000e+02,-8.46250000e+01,-1.74625000e+02,1.71354923e+01,3.14000010e+00,3.14000010e+00,0.00000000e+00,2.00000000e+00,1.11100000e+03,3.96024394e+00,
3.14150000e+00,-3.00000000e+00,4.67844505e+01,1.62255154e+01,3.14150000e+00,3.14150000e+00,-1.93960294e-01,3.14150000e+00,3.14150000e+00,4.00000000e+00,-9.10000000e+01,
2.07873200e+06,-3.58901992e-02,-6.08289018e-02,3.01949997e-02,-6.25000000e-02,6.25000000e-02,6.25000000e-02,3.53946152e+01,1.21000000e+02,-8.46250000e+01,-1.74625000e+02,1.62038269e+01,3.14000010e+00,3.14000010e+00,0.00000000e+00,2.00000000e+00,1.11100000e+03,3.96024394e+00,
3.14150000e+00,-3.00000000e+00,4.67844505e+01,1.68893814e+01,3.14150000e+00,3.14150000e+00,2.85680711e-01,3.14150000e+00,3.14150000e+00,4.00000000e+00,-9.20000000e+01,
2.07879100e+06,5.92890009e-03,8.05229973e-03,8.63000023e-05,1.87500000e-01,-1.25000000e-01,-1.25000000e-01,3.53856735e+01,1.21000000e+02,-8.46250000e+01,-1.74625000e+02,1.63716545e+01,3.14000010e+00,3.14000010e+00,0.00000000e+00,2.00000000e+00,1.11100000e+03,3.94731712e+00,
3.14150000e+00,-3.00000000e+00,4.67844505e+01,1.63830700e+01,3.14150000e+00,3.14150000e+00,-6.45515025e-02,3.14150000e+00,3.14150000e+00,4.00000000e+00,-9.20000000e+01,
2.07884900e+06,1.31417001e-02,2.62490008e-03,1.09730000e-02,6.25000000e-02,0.00000000e+00,-6.25000000e-02,3.53946152e+01,1.21000000e+02,-8.46250000e+01,-1.74625000e+02,1.62038269e+01,3.14000010e+00,3.14000010e+00,0.00000000e+00,2.00000000e+00,1.11100000e+03,3.96024394e+00,
3.14150000e+00,-3.00000000e+00,4.67844505e+01,1.67268276e+01,3.14150000e+00,3.14150000e+00,1.79474697e-01,3.14150000e+00,3.14150000e+00,4.00000000e+00,-9.30000000e+01,
2.07890100e+06,-4.96830000e-03,2.84070000e-02,8.26799963e-03,0.00000000e+00,-1.87500000e-01,-6.25000000e-02,3.53946152e+01,1.21000000e+02,-8.46250000e+01,-1.74625000e+02,1.65437832e+01,3.14000010e+00,3.14000010e+00,0.00000000e+00,2.00000000e+00,1.11100000e+03,3.94731712e+00,
3.14150000e+00,-3.00000000e+00,4.67844505e+01,1.68516846e+01,3.14150000e+00,3.14150000e+00,2.31154501e-01,3.14150000e+00,3.14150000e+00,4.00000000e+00,-9.20000000e+01,
2.07896000e+06,-2.09941994e-02,4.02267985e-02,6.40719989e-03,-6.25000000e-02,-3.75000000e-01,-1.25000000e-01,3.53856735e+01,1.21000000e+02,-8.46250000e+01,-1.74625000e+02,1.63716545e+01,3.14000010e+00,3.14000010e+00,0.00000000e+00,2.00000000e+00,1.11100000e+03,3.94731712e+00,
3.14150000e+00,-3.00000000e+00,4.67844505e+01,1.66059456e+01,3.14150000e+00,3.14150000e+00,8.33524987e-02,3.14150000e+00,3.14150000e+00,4.00000000e+00,-9.20000000e+01,
2.07901200e+06,-4.39096987e-02,7.53490021e-03,-3.89429997e-03,-3.12500000e-01,-1.25000000e-01,1.25000000e-01,3.53856735e+01,1.21000000e+02,-8.46250000e+01,-1.74625000e+02,1.60317154e+01,3.14000010e+00,3.14000010e+00,0.00000000e+00,2.00000000e+00,1.11100000e+03,3.96024394e+00,
3.14150000e+00,-3.00000000e+00,4.67844505e+01,1.63182163e+01,3.14150000e+00,3.14150000e+00,-1.22287802e-01,3.14150000e+00,3.14150000e+00,4.00000000e+00,-9.30000000e+01,
2.07907100e+06,-3.04448996e-02,-3.97793017e-02,9.52470023e-03,-1.87500000e-01,6.25000000e-02,1.25000000e-01,3.53946152e+01,1.21000000e+02,-8.46250000e+01,-1.74625000e+02,1.62038269e+01,3.14000010e+00,3.14000010e+00,0.00000000e+00,2.00000000e+00,1.11100000e+03,3.96024394e+00,
3.14150000e+00,-3.00000000e+00,4.67844505e+01,1.65673027e+01,3.14150000e+00,3.14150000e+00,6.29362017e-02,3.14150000e+00,3.14150000e+00,4.00000000e+00,-9.30000000e+01,
2.07913000e+06,-6.24560006e-03,-2.05671005e-02,3.06265000e-02,6.25000000e-02,1.87500000e-01,0.00000000e+00,3.53856735e+01,1.21000000e+02,-8.46250000e+01,-1.74625000e+02,1.70515766e+01,3.14000010e+00,3.14000010e+00,0.00000000e+00,2.00000000e+00,1.11100000e+03,3.96024394e+00,
3.14150000e+00,-3.00000000e+00,4.67844505e+01,1.63567257e+01,3.14150000e+00,3.14150000e+00,-9.58224013e-02,3.14150000e+00,3.14150000e+00,4.00000000e+00,-9.30000000e+01,
2.07918200e+06,-3.20453010e-02,-3.88142988e-02,2.94371992e-02,1.87500000e-01,1.25000000e-01,-1.25000000e-01,3.53946152e+01,1.21000000e+02,-8.46250000e+01,-1.74625000e+02,1.62038269e+01,3.14000010e+00,3.14000010e+00,0.00000000e+00,2.00000000e+00,1.11100000e+03,3.96024394e+00,
3.14150000e+00,-3.00000000e+00,4.67844505e+01,1.67916298e+01,3.14150000e+00,3.14150000e+00,2.15136796e-01,3.14150000e+00,3.14150000e+00,4.00000000e+00,-9.30000000e+01,
2.07924100e+06,4.98385988e-02,5.17499982e-04,3.98059981e-03,1.87500000e-01,1.25000000e-01,-1.25000000e-01,3.53901443e+01,1.21000000e+02,-8.46250000e+01,-1.74625000e+02,1.56078653e+01,3.14000010e+00,3.14000010e+00,0.00000000e+00,2.00000000e+00,1.11100000e+03,3.94731712e+00,
3.14150000e+00,-3.00000000e+00,4.67844505e+01,1.67402248e+01,3.14150000e+00,3.14150000e+00,1.87149197e-01,3.14150000e+00,3.14150000e+00,4.00000000e+00,-9.50000000e+01,
2.07929900e+06,2.24449998e-03,2.29796004e-02,1.91546995e-02,2.50000000e-01,0.00000000e+00,-6.25000000e-02,3.53901443e+01,1.21000000e+02,-8.46250000e+01,-1.74625000e+02,1.62877388e+01,3.14000010e+00,3.14000010e+00,0.00000000e+00,2.00000000e+00,1.11100000e+03,3.94731712e+00,
3.14150000e+00,-3.00000000e+00,4.67844505e+01,1.62960644e+01,3.14150000e+00,3.14150000e+00,-1.30502194e-01,3.14150000e+00,3.14150000e+00,4.00000000e+00,-9.20000000e+01,
2.07935200e+06,-1.60259008e-02,1.18198004e-02,-1.86089997e-03,0.00000000e+00,0.00000000e+00,-6.25000000e-02,3.53901443e+01,1.21000000e+02,-8.46250000e+01,-1.74625000e+02,1.66276951e+01,3.14000010e+00,3.14000010e+00,0.00000000e+00,2.00000000e+00,1.11100000e+03,3.94731712e+00,
3.14150000e+00,-3.00000000e+00,4.67844505e+01,1.63952293e+01,3.14150000e+00,3.14150000e+00,-4.77270000e-02,3.14150000e+00,3.14150000e+00,4.00000000e+00,-9.30000000e+01,
2.07941100e+06,-2.56392993e-02,1.86947007e-02,1.71211995e-02,-6.25000000e-02,6.25000000e-02,-6.25000000e-02,3.53901443e+01,1.21000000e+02,-8.46250000e+01,-1.74625000e+02,1.73076420e+01,3.14000010e+00,3.14000010e+00,0.00000000e+00,2.00000000e+00,1.11100000e+03,3.94731712e+00,
3.14150000e+00,-3.00000000e+00,4.67844505e+01,1.67304726e+01,3.14150000e+00,3.14150000e+00,1.80675000e-01,3.14150000e+00,3.14150000e+00,4.00000000e+00,-9.10000000e+01,
2.07946200e+06,-3.70136015e-02,-1.04072997e-02,3.77052017e-02,6.25000000e-02,-6.25000000e-02,6.25000000e-02,3.53901443e+01,1.21000000e+02,-8.46250000e+01,-1.74625000e+02,1.69676628e+01,3.14000010e+00,3.14000010e+00,0.00000000e+00,2.00000000e+00,1.11100000e+03,3.96024394e+00,
3.14150000e+00,-3.00000000e+00,4.67844505e+01,1.63152981e+01,3.14150000e+00,3.14150000e+00,-9.03996006e-02,3.14150000e+00,3.14150000e+00,4.00000000e+00,-9.10000000e+01,
2.07952200e+06,-1.26580996e-02,-1.56222004e-02,9.78360046e-03,-1.25000000e-01,-6.25000000e-02,2.50000000e-01,3.53946152e+01,1.21000000e+02,-8.46250000e+01,-1.74625000e+02,1.58638849e+01,3.14000010e+00,3.14000010e+00,0.00000000e+00,2.00000000e+00,1.11100000e+03,3.94731712e+00,
3.14150000e+00,-3.00000000e+00,4.67844505e+01,1.70146027e+01,3.14150000e+00,3.14150000e+00,4.10055190e-01,3.14150000e+00,3.14150000e+00,4.00000000e+00,-9.10000000e+01,
2.07958100e+06,4.16800007e-03,-2.79245004e-02,1.68820005e-03,-1.87500000e-01,1.87500000e-01,1.87500000e-01,3.53856735e+01,1.21000000e+02,-8.46250000e+01,-1.74625000e+02,1.70515766e+01,3.14000010e+00,3.14000010e+00,0.00000000e+00,2.00000000e+00,1.11100000e+03,3.96024394e+00,
3.14150000e+00,-3.00000000e+00,4.67844505e+01,1.63772335e+01,3.14150000e+00,3.14150000e+00,-5.49735017e-02,3.14150000e+00,3.14150000e+00,4.00000000e+00,-9.10000000e+01,
2.07963300e+06,3.12515981e-02,-2.31570993e-02,1.36780003e-02,1.25000000e-01,1.25000000e-01,-1.87500000e-01,3.53946152e+01,1.21000000e+02,-8.46250000e+01,-1.74625000e+02,1.62038269e+01,3.14000010e+00,3.14000010e+00,0.00000000e+00,2.00000000e+00,1.11100000e+03,3.96024394e+00,
3.14150000e+00,-3.00000000e+00,4.67844505e+01,1.62745094e+01,3.14150000e+00,3.14150000e+00,-1.06880397e-01,3.14150000e+00,3.14150000e+00,4.00000000e+00,-9.10000000e+01,
2.07969200e+06,2.62832996e-02,5.24989981e-03,2.19459999e-02,3.12500000e-01,6.25000000e-02,-1.87500000e-01,3.53901443e+01,1.21000000e+02,-8.46250000e+01,-1.74625000e+02,1.66276951e+01,3.14000010e+00,3.14000010e+00,0.00000000e+00,2.00000000e+00,1.11100000e+03,3.96024394e+00,
3.14150000e+00,-3.00000000e+00,4.67844505e+01,1.66146355e+01,3.14150000e+00,3.14150000e+00,1.32015005e-01,3.14150000e+00,3.14150000e+00,4.00000000e+00,-9.20000000e+01,
2.07975100e+06,2.03543995e-02,-2.80250004e-03,2.18596999e-02,1.25000000e-01,-1.25000000e-01,-6.25000000e-02,3.53856735e+01,1.21000000e+02,-8.46250000e+01,-1.74625000e+02,1.70515766e+01,3.14000010e+00,3.14000010e+00,0.00000000e+00,2.00000000e+00,1.11100000e+03,3.94731712e+00,
3.14150000e+00,-3.00000000e+00,4.67844505e+01,1.65871868e+01,3.14150000e+00,3.14150000e+00,1.30055606e-01,3.14150000e+00,3.14150000e+00,4.00000000e+00,-9.50000000e+01,
2.07980200e+06,-4.47098985e-02,8.01740028e-03,6.06189994e-03,3.12500000e-01,6.25000000e-02,-3.75000000e-01,3.53946152e+01,1.21000000e+02,-8.46250000e+01,-1.74625000e+02,1.68837509e+01,3.14000010e+00,3.14000010e+00,0.00000000e+00,2.00000000e+00,1.11100000e+03,3.94731712e+00,
3.14150000e+00,-3.00000000e+00,4.67844505e+01,1.67346783e+01,3.14150000e+00,3.14150000e+00,2.23245800e-01,3.14150000e+00,3.14150000e+00,4.00000000e+00,-9.50000000e+01,
2.07986100e+06,-2.56392993e-02,1.86947007e-02,1.71211995e-02,6.25000000e-02,0.00000000e+00,-1.87500000e-01,3.53946152e+01,1.21000000e+02,-8.46250000e+01,-1.74625000e+02,1.62038269e+01,3.14000010e+00,3.14000010e+00,0.00000000e+00,2.00000000e+00,1.11100000e+03,3.94731712e+00,
3.14150000e+00,-3.00000000e+00,4.67844505e+01,1.66057053e+01,3.14150000e+00,3.14150000e+00,1.24336302e-01,3.14150000e+00,3.14150000e+00,4.00000000e+00,-9.60000000e+01,
2.07991300e+06,-1.04136001e-02,7.35729979e-03,2.89383009e-02,-6.25000000e-02,1.87500000e-01,6.25000000e-02,3.53901443e+01,1.21000000e+02,-8.46250000e+01,-1.74625000e+02,1.66276951e+01,3.14000010e+00,3.14000010e+00,0.00000000e+00,2.00000000e+00,1.11100000e+03,3.96024394e+00,
3.14150000e+00,-3.00000000e+00,4.67844505e+01,1.67791519e+01,3.14150000e+00,3.14150000e+00,2.19952300e-01,3.14150000e+00,3.14150000e+00,4.00000000e+00,-9.50000000e+01,
2.07997200e+06,-8.32960010e-03,-6.60490012e-03,2.97823995e-02,0.00000000e+00,-1.25000000e-01,6.25000000e-02,3.53946152e+01,1.21000000e+02,-8.46250000e+01,-1.74625000e+02,1.55239506e+01,3.14000010e+00,3.14000010e+00,0.00000000e+00,2.00000000e+00,1.11100000e+03,3.94731712e+00,
3.14150000e+00,-3.00000000e+00,4.67844505e+01,1.64603901e+01,3.14150000e+00,3.14150000e+00,-5.76189999e-03,3.14150000e+00,3.14150000e+00,4.00000000e+00,-9.30000000e+01,
2.08003200e+06,1.65094994e-02,-2.48170998e-02,2.26175003e-02,-6.25000000e-02,2.50000000e-01,-1.25000000e-01,3.53856735e+01,1.21000000e+02,-8.46250000e+01,-1.74625000e+02,1.63716545e+01,3.14000010e+00,3.14000010e+00,0.00000000e+00,2.00000000e+00,1.11100000e+03,3.94731712e+00,
3.14150000e+00,-3.00000000e+00,4.67844505e+01,1.63739433e+01,3.14150000e+00,3.14150000e+00,-7.65295997e-02,3.14150000e+00,3.14150000e+00,4.00000000e+00,-9.30000000e+01,
2.08008300e+06,-5.92890009e-03,-8.05229973e-03,-8.63000023e-05,1.25000000e-01,1.25000000e-01,-6.25000000e-02,3.53946152e+01,1.21000000e+02,-8.46250000e+01,-1.74625000e+02,1.68837509e+01,3.14000010e+00,3.14000010e+00,0.00000000e+00,2.00000000e+00,1.11100000e+03,3.96024394e+00,
3.14150000e+00,-3.00000000e+00,4.67844505e+01,1.61146832e+01,3.14150000e+00,3.14150000e+00,-2.33884603e-01,3.14150000e+00,3.14150000e+00,4.00000000e+00,-9.20000000e+01,
2.08014200e+06,-8.48999992e-03,-4.35466990e-02,1.14719002e-02,2.50000000e-01,0.00000000e+00,-2.50000000e-01,3.53901443e+01,1.21000000e+02,-8.46250000e+01,-1.74625000e+02,1.73076420e+01,3.14000010e+00,3.14000010e+00,0.00000000e+00,2.00000000e+00,1.11100000e+03,3.96024394e+00,
3.14150000e+00,-3.00000000e+00,4.67844505e+01,1.68042316e+01,3.14150000e+00,3.14150000e+00,2.40567505e-01,3.14150000e+00,3.14150000e+00,4.00000000e+00,-9.10000000e+01,
2.08020000e+06,-4.24654000e-02,3.09969001e-02,2.52165999e-02,2.50000000e-01,-6.25000000e-02,-6.25000000e-02,3.53812027e+01,1.21000000e+02,-8.46250000e+01,-1.74625000e+02,1.71354923e+01,3.14000010e+00,3.14000010e+00,0.00000000e+00,2.00000000e+00,1.11100000e+03,3.96024394e+00,
3.14150000e+00,-3.00000000e+00,4.67844505e+01,1.68887482e+01,3.14150000e+00,3.14150000e+00,3.10559601e-01,3.14150000e+00,3.14150000e+00,4.00000000e+00,-9.10000000e+01,
2.08025300e+06,-1.68261006e-02,1.23023000e-02,8.09540041e-03,3.12500000e-01,1.25000000e-01,-6.25000000e-02,3.54035568e+01,1.21000000e+02,-8.46250000e+01,-1.74625000e+02,1.67159271e+01,3.14000010e+00,3.14000010e+00,0.00000000e+00,2.00000000e+00,1.11100000e+03,3.94731712e+00,
3.14150000e+00,-3.00000000e+00,4.67844505e+01,1.64019527e+01,3.14150000e+00,3.14150000e+00,-4.81134988e-02,3.14150000e+00,3.14150000e+00,4.00000000e+00,-9.00000000e+01,
2.08031200e+06,-4.83944006e-02,2.29445994e-02,2.51302999e-02,6.25000000e-02,1.87500000e-01,0.00000000e+00,3.53946152e+01,1.21000000e+02,-8.46250000e+01,-1.74625000e+02,1.62038269e+01,3.14000010e+00,3.14000010e+00,0.00000000e+00,2.00000000e+00,1.11100000e+03,3.94731712e+00,
3.14150000e+00,-3.00000000e+00,4.67844505e+01,1.66222191e+01,3.14150000e+00,3.14150000e+00,1.13388099e-01,3.14150000e+00,3.14150000e+00,4.00000000e+00,-9.00000000e+01,
2.08036300e+06,-9.61340033e-03,6.87489985e-03,1.89820994e-02,-1.25000000e-01,0.00000000e+00,1.25000000e-01,3.53946152e+01,1.21000000e+02,-8.46250000e+01,-1.74625000e+02,1.72237282e+01,3.14000010e+00,3.14000010e+00,0.00000000e+00,2.00000000e+00,1.11100000e+03,3.96024394e+00,
3.14150000e+00,-3.00000000e+00,4.67844505e+01,1.62992611e+01,3.14150000e+00,3.14150000e+00,-1.23660602e-01,3.14150000e+00,3.14150000e+00,4.00000000e+00,-9.00000000e+01,
2.08042300e+06,1.52257001e-02,-1.13372998e-02,1.18171005e-02,-6.25000000e-02,-1.25000000e-01,1.87500000e-01,3.53990860e+01,1.21000000e+02,-8.46250000e+01,-1.74625000e+02,1.57799721e+01,3.14000010e+00,3.14000010e+00,0.00000000e+00,2.00000000e+00,1.11100000e+03,3.94731712e+00,
3.14150000e+00,-3.00000000e+00,4.67844505e+01,1.64154053e+01,3.14150000e+00,3.14150000e+00,-6.12860993e-02,3.14150000e+00,3.14150000e+00,4.00000000e+00,-8.90000000e+01,
2.08048200e+06,-1.34583004e-02,-1.51396999e-02,1.97398998e-02,-1.25000000e-01,-6.25000000e-02,-6.25000000e-02,3.53856735e+01,1.21000000e+02,-8.46250000e+01,-1.74625000e+02,1.70515766e+01,3.14000010e+00,3.14000010e+00,0.00000000e+00,2.00000000e+00,1.11100000e+03,3.94731712e+00,
3.14150000e+00,-3.00000000e+00,4.67844505e+01,1.66746483e+01,3.14150000e+00,3.14150000e+00,1.29091397e-01,3.14150000e+00,3.14150000e+00,4.00000000e+00,-8.80000000e+01,
2.08053400e+06,7.69629981e-03,-1.84246991e-02,3.16433012e-02,6.25000000e-02,-6.25000000e-02,-6.25000000e-02,3.53946152e+01,1.21000000e+02,-8.46250000e+01,-1.74625000e+02,1.62038269e+01,3.14000010e+00,3.14000010e+00,0.00000000e+00,2.00000000e+00,1.11100000e+03,3.96024394e+00,
3.14150000e+00,-3.00000000e+00,4.67844505e+01,1.64587803e+01,3.14150000e+00,3.14150000e+00,-1.55507000e-02,3.14150000e+00,3.14150000e+00,4.00000000e+00,-9.00000000e+01,
2.08059300e+06,-2.40070000e-03,1.44739996e-03,2.98686996e-02,2.50000000e-01,1.25000000e-01,-1.87500000e-01,3.53856735e+01,1.21000000e+02,-8.46250000e+01,-1.74625000e+02,1.63716545e+01,3.14000010e+00,3.14000010e+00,0.00000000e+00,2.00000000e+00,1.11100000e+03,3.96024394e+00,
3.14150000e+00,-3.00000000e+00,4.67844505e+01,1.62654667e+01,3.14150000e+00,3.14150000e+00,-1.40717700e-01,3.14150000e+00,3.14150000e+00,4.00000000e+00,-9.30000000e+01,
2.08065200e+06,-2.40070000e-03,1.44739996e-03,2.98686996e-02,1.87500000e-01,0.00000000e+00,-6.25000000e-02,3.53946152e+01,1.21000000e+02,-8.46250000e+01,-1.74625000e+02,1.68837509e+01,3.14000010e+00,3.14000010e+00,0.00000000e+00,2.00000000e+00,1.11100000e+03,3.94731712e+00,
3.14150000e+00,-3.00000000e+00,4.67844505e+01,1.69008865e+01,3.14150000e+00,3.14150000e+00,3.17684114e-01,3.14150000e+00,3.14150000e+00,4.00000000e+00,-9.10000000e+01,
2.08070300e+06,-4.96830000e-03,2.84070000e-02,8.26799963e-03,1.25000000e-01,1.87500000e-01,6.25000000e-02,3.53946152e+01,1.21000000e+02,-8.46250000e+01,-1.74625000e+02,1.62038269e+01,3.14000010e+00,3.14000010e+00,0.00000000e+00,2.00000000e+00,1.11100000e+03,3.96024394e+00,
3.14150000e+00,-3.00000000e+00,4.67844505e+01,1.65597363e+01,3.14150000e+00,3.14150000e+00,7.59819001e-02,3.14150000e+00,3.14150000e+00,4.00000000e+00,-9.20000000e+01,
2.08076200e+06,9.60699981e-04,3.64593007e-02,8.35429970e-03,0.00000000e+00,0.00000000e+00,1.87500000e-01,3.53856735e+01,1.21000000e+02,-8.46250000e+01,-1.74625000e+02,1.80715275e+01,3.14000010e+00,3.14000010e+00,0.00000000e+00,2.00000000e+00,1.11100000e+03,3.94731712e+00,
3.14150000e+00,-3.00000000e+00,4.67844505e+01,1.64783459e+01,3.14150000e+00,3.14150000e+00,1.01353005e-02,3.14150000e+00,3.14150000e+00,4.00000000e+00,-9.30000000e+01,
2.08081400e+06,4.32850001e-03,9.01729986e-03,1.99988000e-02,-1.87500000e-01,-1.25000000e-01,6.25000000e-02,3.53946152e+01,1.21000000e+02,-8.46250000e+01,-1.74625000e+02,1.68837509e+01,3.14000010e+00,3.14000010e+00,0.00000000e+00,2.00000000e+00,1.11100000e+03,3.96024394e+00,
3.14150000e+00,-3.00000000e+00,4.67844505e+01,1.65619297e+01,3.14150000e+00,3.14150000e+00,1.16549700e-01,3.14150000e+00,3.14150000e+00,4.00000000e+00,-9.20000000e+01,
2.08087300e+06,-1.04136001e-02,7.35729979e-03,2.89383009e-02,-6.25000000e-02,-6.25000000e-02,6.25000000e-02,3.53946152e+01,1.21000000e+02,-8.46250000e+01,-1.74625000e+02,1.68837509e+01,3.14000010e+00,3.14000010e+00,0.00000000e+00,2.00000000e+00,1.11100000e+03,3.94731712e+00,
3.14150000e+00,-3.00000000e+00,4.67844505e+01,1.64091454e+01,3.14150000e+00,3.14150000e+00,8.19440000e-03,3.14150000e+00,3.14150000e+00,4.00000000e+00,-9.10000000e+01,
2.08093300e+06,2.40719994e-03,-6.39012977e-02,3.29019991e-03,-2.50000000e-01,0.00000000e+00,0.00000000e+00,3.53856735e+01,1.21000000e+02,-8.46250000e+01,-1.74625000e+02,1.70515766e+01,3.14000010e+00,3.14000010e+00,0.00000000e+00,2.00000000e+00,1.11100000e+03,3.96024394e+00,
3.14150000e+00,-3.00000000e+00,4.67844505e+01,1.64802990e+01,3.14150000e+00,3.14150000e+00,5.74470013e-02,3.14150000e+00,3.14150000e+00,4.00000000e+00,-9.10000000e+01,
2.08098400e+06,-2.14712992e-02,-9.22979973e-03,1.88094005e-02,0.00000000e+00,2.50000000e-01,-6.25000000e-02,3.53946152e+01,1.21000000e+02,-8.46250000e+01,-1.74625000e+02,1.65437832e+01,3.14000010e+00,3.14000010e+00,0.00000000e+00,2.00000000e+00,1.11100000e+03,3.96024394e+00,
3.14150000e+00,-3.00000000e+00,4.67844505e+01,1.66703739e+01,3.14150000e+00,3.14150000e+00,1.82728201e-01,3.14150000e+00,3.14150000e+00,4.00000000e+00,-9.10000000e+01,
2.08104300e+06,3.50965001e-02,-1.14249997e-03,1.29201002e-02,1.25000000e-01,1.25000000e-01,0.00000000e+00,3.53946152e+01,1.21000000e+02,-8.46250000e+01,-1.74625000e+02,1.62038269e+01,3.14000010e+00,3.14000010e+00,0.00000000e+00,2.00000000e+00,1.11100000e+03,3.94731712e+00,
3.14150000e+00,-3.00000000e+00,4.67844505e+01,1.62034645e+01,3.14150000e+00,3.14150000e+00,-1.65024504e-01,3.14150000e+00,3.14150000e+00,4.00000000e+00,-9.20000000e+01,
2.08110200e+06,5.12869982e-03,8.53480026e-03,1.00426003e-02,2.50000000e-01,6.25000000e-02,-1.25000000e-01,3.53901443e+01,1.21000000e+02,-8.46250000e+01,-1.74625000e+02,1.69676628e+01,3.14000010e+00,3.14000010e+00,0.00000000e+00,2.00000000e+00,1.11100000e+03,3.94731712e+00,
3.14150000e+00,-3.00000000e+00,4.67844505e+01,1.65076885e+01,3.14150000e+00,3.14150000e+00,4.68714014e-02,3.14150000e+00,3.14150000e+00,4.00000000e+00,-9.20000000e+01,
2.08115400e+06,-2.40388997e-02,1.77296996e-02,-2.79129995e-03,2.50000000e-01,6.25000000e-02,-6.25000000e-02,3.53946152e+01,1.21000000e+02,-8.46250000e+01,-1.74625000e+02,1.68837509e+01,3.14000010e+00,3.14000010e+00,0.00000000e+00,2.00000000e+00,1.11100000e+03,3.93439007e+00,
3.14150000e+00,-3.00000000e+00,4.67844505e+01,1.66766682e+01,3.14150000e+00,3.14150000e+00,1.66048706e-01,3.14150000e+00,3.14150000e+00,4.00000000e+00,-9.20000000e+01,
2.08121300e+06,-1.76263005e-02,1.27847996e-02,1.80516001e-02,1.87500000e-01,6.25000000e-02,-6.25000000e-02,3.53856735e+01,1.21000000e+02,-8.46250000e+01,-1.74625000e+02,1.63716545e+01,3.14000010e+00,3.14000010e+00,0.00000000e+00,2.00000000e+00,1.11100000e+03,3.94731712e+00,
3.14150000e+00,-3.00000000e+00,4.67844505e+01,1.64092827e+01,3.14150000e+00,3.14150000e+00,-9.64699965e-03,3.14150000e+00,3.14150000e+00,4.00000000e+00,-9.20000000e+01,
2.08126400e+06,-1.76263005e-02,1.27847996e-02,1.80516001e-02,1.25000000e-01,0.00000000e+00,-6.25000000e-02,3.53901443e+01,1.21000000e+02,-8.46250000e+01,-1.74625000e+02,1.69676628e+01,3.14000010e+00,3.14000010e+00,0.00000000e+00,2.00000000e+00,1.11100000e+03,3.96024394e+00,
3.14150000e+00,-3.00000000e+00,4.67844505e+01,1.63722076e+01,3.14150000e+00,3.14150000e+00,-2.72688009e-02,3.14150000e+00,3.14150000e+00,4.00000000e+00,-9.50000000e+01,
2.08132400e+06,-8.32960010e-03,-6.60490012e-03,2.97823995e-02,1.87500000e-01,-1.25000000e-01,6.25000000e-02,3.53946152e+01,1.21000000e+02,-8.46250000e+01,-1.74625000e+02,1.65437832e+01,3.14000010e+00,3.14000010e+00,0.00000000e+00,2.00000000e+00,1.11100000e+03,3.96024394e+00,
3.14150000e+00,-3.00000000e+00,4.67844505e+01,1.65142155e+01,3.14150000e+00,3.14150000e+00,6.36690035e-02,3.14150000e+00,3.14150000e+00,4.00000000e+00,-9.60000000e+01,
2.08138300e+06,-3.02843992e-02,-2.83750007e-03,2.78353002e-02,-1.87500000e-01,6.25000000e-02,6.25000000e-02,3.53856735e+01,1.21000000e+02,-8.46250000e+01,-1.74625000e+02,1.70515766e+01,3.14000010e+00,3.14000010e+00,0.00000000e+00,2.00000000e+00,1.11100000e+03,3.96024394e+00,
3.14150000e+00,-3.00000000e+00,4.67844505e+01,1.67598629e+01,3.14150000e+00,3.14150000e+00,2.48055503e-01,3.14150000e+00,3.14150000e+00,4.00000000e+00,-9.50000000e+01,
2.08143500e+06,7.69629981e-03,-1.84246991e-02,3.16433012e-02,0.00000000e+00,-6.25000000e-02,0.00000000e+00,3.53946152e+01,1.21000000e+02,-8.46250000e+01,-1.74625000e+02,1.72237282e+01,3.14000010e+00,3.14000010e+00,0.00000000e+00,2.00000000e+00,1.11100000e+03,3.96024394e+00,
3.14150000e+00,-3.00000000e+00,4.67844505e+01,1.62282410e+01,3.14150000e+00,3.14150000e+00,-9.71167982e-02,3.14150000e+00,3.14150000e+00,4.00000000e+00,-9.50000000e+01,
2.08150500e+06,-9.12979990e-03,-6.12240005e-03,3.97386998e-02,0.00000000e+00,1.87500000e-01,0.00000000e+00,3.53901443e+01,1.21000000e+02,-8.46250000e+01,-1.74625000e+02,1.62877388e+01,3.14000010e+00,3.14000010e+00,0.00000000e+00,2.00000000e+00,1.11100000e+03,3.94731712e+00,
3.14150000e+00,-3.00000000e+00,4.67844505e+01,1.63246670e+01,3.14150000e+00,3.14150000e+00,1.92121893e-01,3.14150000e+00,3.14150000e+00,4.00000000e+00,-9.50000000e+01,
2.08156400e+06,-8.00199981e-04,4.82500007e-04,9.95619968e-03,1.87500000e-01,-1.25000000e-01,-1.87500000e-01,3.53901443e+01,1.21000000e+02,-8.46250000e+01,-1.74625000e+02,1.66276951e+01,3.14000010e+00,3.14000010e+00,0.00000000e+00,2.00000000e+00,1.11100000e+03,3.94731712e+00,
3.14150000e+00,-3.00000000e+00,4.67844505e+01,1.60198765e+01,3.14150000e+00,3.14150000e+00,7.24399986e-04,3.14150000e+00,3.14150000e+00,4.00000000e+00,-9.50000000e+01,
2.08161600e+06,2.32385993e-02,-1.72472000e-02,1.27475001e-02,1.87500000e-01,-6.25000000e-02,-6.25000000e-02,3.53901443e+01,1.21000000e+02,-8.46250000e+01,-1.74625000e+02,1.69676628e+01,3.14000010e+00,3.14000010e+00,0.00000000e+00,2.00000000e+00,1.11100000e+03,3.94731712e+00,
3.14150000e+00,-3.00000000e+00,4.67844505e+01,1.67558041e+01,3.14150000e+00,3.14150000e+00,4.94394988e-01,3.14150000e+00,3.14150000e+00,4.00000000e+00,-9.50000000e+01,
2.08167400e+06,-2.72397008e-02,1.96595993e-02,3.70336995e-02,-6.25000000e-02,0.00000000e+00,6.25000000e-02,3.53901443e+01,1.21000000e+02,-8.46250000e+01,-1.74625000e+02,1.62877388e+01,3.14000010e+00,3.14000010e+00,0.00000000e+00,2.00000000e+00,1.11100000e+03,3.94731712e+00,
3.14150000e+00,-3.00000000e+00,4.67844505e+01,1.61355400e+01,3.14150000e+00,3.14150000e+00,3.55410017e-02,3.14150000e+00,3.14150000e+00,4.00000000e+00,-9.50000000e+01,
2.08173400e+06,-2.14712992e-02,-9.22979973e-03,1.88094005e-02,-1.87500000e-01,0.00000000e+00,0.00000000e+00,3.53946152e+01,1.21000000e+02,-8.46250000e+01,-1.74625000e+02,1.62038269e+01,3.14000010e+00,3.14000010e+00,0.00000000e+00,2.00000000e+00,1.11100000e+03,3.94731712e+00,
3.14150000e+00,-3.00000000e+00,4.67844505e+01,1.63704777e+01,3.14150000e+00,3.14150000e+00,1.87441394e-01,3.14150000e+00,3.14150000e+00,4.00000000e+00,-9.50000000e+01,
2.08179100e+06,-2.56392993e-02,1.86947007e-02,1.71211995e-02,-6.25000000e-02,0.00000000e+00,6.25000000e-02,3.53946152e+01,1.21000000e+02,-8.46250000e+01,-1.74625000e+02,1.65437832e+01,3.14000010e+00,3.14000010e+00,0.00000000e+00,2.00000000e+00,1.11100000e+03,3.94731712e+00,
3.14150000e+00,-3.00000000e+00,4.67844505e+01,1.67423801e+01,3.14150000e+00,3.14150000e+00,4.22855914e-01,3.14150000e+00,3.14150000e+00,4.00000000e+00,-9.30000000e+01,
2.08184400e+06,6.41250005e-03,-4.94490005e-03,2.08429005e-02,-6.25000000e-02,-1.25000000e-01,0.00000000e+00,3.53946152e+01,1.21000000e+02,-8.46250000e+01,-1.74625000e+02,1.68837509e+01,3.14000010e+00,3.14000010e+00,0.00000000e+00,2.00000000e+00,1.11100000e+03,3.96024394e+00,
3.14150000e+00,-3.00000000e+00,4.67844505e+01,1.62338390e+01,3.14150000e+00,3.14150000e+00,6.94589019e-02,3.14150000e+00,3.14150000e+00,4.00000000e+00,-9.20000000e+01,
2.08190300e+06,1.23413997e-02,3.10739991e-03,2.09292006e-02,0.00000000e+00,-1.25000000e-01,1.25000000e-01,3.53901443e+01,1.21000000e+02,-8.46250000e+01,-1.74625000e+02,1.69676628e+01,3.14000010e+00,3.14000010e+00,0.00000000e+00,2.00000000e+00,1.11100000e+03,3.96024394e+00,
3.14150000e+00,-3.00000000e+00,4.67844505e+01,1.67887077e+01,3.14150000e+00,3.14150000e+00,4.28529888e-01,3.14150000e+00,3.14150000e+00,4.00000000e+00,-9.10000000e+01,
2.08195500e+06,-9.12979990e-03,-6.12240005e-03,3.97386998e-02,6.25000000e-02,1.25000000e-01,-6.25000000e-02,3.53946152e+01,1.21000000e+02,-8.46250000e+01,-1.74625000e+02,1.68837509e+01,3.14000010e+00,3.14000010e+00,0.00000000e+00,2.00000000e+00,1.11100000e+03,3.97317076e+00,
3.14150000e+00,-3.00000000e+00,4.67844505e+01,1.65356426e+01,3.14150000e+00,3.14150000e+00,2.55399406e-01,3.14150000e+00,3.14150000e+00,4.00000000e+00,-9.20000000e+01,
2.08201400e+06,-8.81319959e-03,6.39239978e-03,9.02580004e-03,-6.25000000e-02,-1.25000000e-01,-1.25000000e-01,3.53946152e+01,1.21000000e+02,-8.46250000e+01,-1.74625000e+02,1.72237282e+01,3.14000010e+00,3.14000010e+00,0.00000000e+00,2.00000000e+00,1.11100000e+03,3.94731712e+00,
3.14150000e+00,-3.00000000e+00,4.67844505e+01,1.61869659e+01,3.14150000e+00,3.14150000e+00,-6.49050018e-03,3.14150000e+00,3.14150000e+00,4.00000000e+00,-9.50000000e+01,
2.08206800e+06,-1.04136001e-02,7.35729979e-03,2.89383009e-02,2.50000000e-01,-6.25000000e-02,0.00000000e+00,3.53946152e+01,1.21000000e+02,-8.46250000e+01,-1.74625000e+02,1.68837509e+01,3.14000010e+00,3.14000010e+00,0.00000000e+00,2.00000000e+00,1.11100000e+03,3.93439007e+00,
3.14150000e+00,-3.00000000e+00,4.67844505e+01,1.62833748e+01,3.14150000e+00,3.14150000e+00,8.47036988e-02,3.14150000e+00,3.14150000e+00,4.00000000e+00,-9.60000000e+01,
2.08212500e+06,-9.12979990e-03,-6.12240005e-03,3.97386998e-02,-6.25000000e-02,-6.25000000e-02,0.00000000e+00,3.53990860e+01,1.21000000e+02,-8.46250000e+01,-1.74625000e+02,1.64598694e+01,3.14000010e+00,3.14000010e+00,0.00000000e+00,2.00000000e+00,1.11100000e+03,3.94731712e+00,
3.14150000e+00,-3.00000000e+00,4.67844505e+01,1.63059921e+01,3.14150000e+00,3.14150000e+00,8.83695036e-02,3.14150000e+00,3.14150000e+00,4.00000000e+00,-9.80000000e+01,
2.08218500e+06,-6.72920002e-03,-7.56989978e-03,9.86989960e-03,-2.50000000e-01,1.25000000e-01,6.25000000e-02,3.53946152e+01,1.21000000e+02,-8.46250000e+01,-1.74625000e+02,1.58638849e+01,3.14000010e+00,3.14000010e+00,0.00000000e+00,2.00000000e+00,1.11100000e+03,3.96024394e+00,
3.14150000e+00,-3.00000000e+00,4.67844505e+01,1.66329441e+01,3.14150000e+00,3.14150000e+00,3.14112186e-01,3.14150000e+00,3.14150000e+00,4.00000000e+00,-9.70000000e+01,
2.08224300e+06,1.00969998e-02,-1.98720992e-02,1.77450001e-03,-1.25000000e-01,6.25000000e-02,6.25000000e-02,3.53946152e+01,1.21000000e+02,-8.46250000e+01,-1.74625000e+02,1.62038269e+01,3.14000010e+00,3.14000010e+00,0.00000000e+00,2.00000000e+00,1.11100000e+03,3.96024394e+00,
3.14150000e+00,-3.00000000e+00,4.67844505e+01,1.65492554e+01,3.14150000e+00,3.14150000e+00,2.18952194e-01,3.14150000e+00,3.14150000e+00,4.00000000e+00,-9.80000000e+01,
2.08229500e+06,5.12869982e-03,8.53480026e-03,1.00426003e-02,0.00000000e+00,-6.25000000e-02,-1.25000000e-01,3.53990860e+01,1.21000000e+02,-8.46250000e+01,-1.74625000e+02,1.64598694e+01,3.14000010e+00,3.14000010e+00,0.00000000e+00,2.00000000e+00,1.11100000e+03,3.94731712e+00,
3.14150000e+00,-3.00000000e+00,4.67844505e+01,1.64824009e+01,3.14150000e+00,3.14150000e+00,1.49739698e-01,3.14150000e+00,3.14150000e+00,4.00000000e+00,-1.00000000e+02,
2.08235400e+06,2.70834994e-02,4.76740021e-03,1.19896997e-02,-6.25000000e-02,1.25000000e-01,-6.25000000e-02,3.53946152e+01,1.21000000e+02,-8.46250000e+01,-1.74625000e+02,1.65437832e+01,3.14000010e+00,3.14000010e+00,0.00000000e+00,2.00000000e+00,1.11100000e+03,3.94731712e+00,
3.14150000e+00,-3.00000000e+00,4.67844505e+01,1.68094540e+01,3.14150000e+00,3.14150000e+00,3.62548202e-01,3.14150000e+00,3.14150000e+00,4.00000000e+00,-9.80000000e+01,
2.08240600e+06,-9.61340033e-03,6.87489985e-03,1.89820994e-02,-6.25000000e-02,-6.25000000e-02,-1.25000000e-01,3.53990860e+01,1.21000000e+02,-8.46250000e+01,-1.74625000e+02,1.61199131e+01,3.14000010e+00,3.14000010e+00,0.00000000e+00,2.00000000e+00,1.11100000e+03,3.96024394e+00,
3.14150000e+00,-3.00000000e+00,4.67844505e+01,1.63422184e+01,3.14150000e+00,3.14150000e+00,4.55291010e-02,3.14150000e+00,3.14150000e+00,4.00000000e+00,-9.70000000e+01,
